According to Lincoln Cert 5439094.pdf on page 1, row 1-1, this document outlines the Certificate of Group Long-Term Disability Insurance provided by Lincoln Financial Group, the marketing name for Lincoln National Corporation and its affiliates (GL3002-LTD-CERT 10). The policy offers disability coverage that will provide eligible participants with a monthly benefit in case they become disabled due to an accident or sickness. The benefits are payable up to age 65, and the initial elimination period is 90 days (subject to change based on the specific plan details). The maximum benefit amount is $12,000 per month.
<EOS>
According to Lincoln Cert 5439094.pdf, effective date of coverage is January 1st, 2021, as stated on row 1 of page 1. This policy details the terms and conditions for insurance protection, with specifics to be found throughout the document. The policyholder's name, policy number, and other identifying information can also be found on this face page. It's essential to comply with all requirements and deadlines stated in the policy to ensure valid coverage.
<EOS>
According to Lincoln Cert 5439094.pdf on pages 1, the company's home office is located in Fort Wayne, Indiana, while its Group Insurance Service Office resides at 8801 Indian Hills Drive, Omaha, NE 68114-4066. The contact number for this service office is 800-423-2765. For online inquiries, the website is www.LincolnFinancial.com. This document was issued on an undisclosed date.
<EOS>
According to Lincoln Cert 5439094.pdf, as of January 1, 2021, Group Policy No. 000010265461 has been issued to Radiology Associates, P.A. (The Group Policyholder). This certificate supersedes and replaces any previous certificates from January 1, 2021. Entitled individuals are eligible for the benefits described in this Certificate only if they meet and maintain insurance coverage under the policy provisions. The certificate provides a summary of the insurance policy's terms but is not the contract itself; it is subject to the policy's conditions. If there is any discrepancy between the certificate and the policy, the policy's provisions apply.
<EOS>
According to Lincoln Cert 5439094.pdf, under the Schedule of Benefits (row [1, 1]), the policy provides a GL3002 certificate beginning on January 1, 2021. The coverage amounts to $100,000 per life event, with a maximum annual benefit limit of $150,000 and an overall lifetime benefit limit of $450,000. The policy requires policyholders to submit claims within three years from the date of the qualifying event for consideration. Additionally, there is a specified waiting period of 90 days before benefits are disbursed. The policy also includes coverage for accidental death and dismemberment up to the principal sum.
<EOS>
According to the Lincoln Cert 5439094.pdf on page 2, row 1, the eligible class for this policy is Class 1. To be eligible, individuals must meet specific criteria such as being a natural person, not an entity or partnership, and having a valid driver's license at the time of application. Eligibility also requires that applicants are resident citizens of the United States aged between 18 and 64 years old, with a maximum policy term of 30 years. Furthermore, the policy has a coverage limit of $1 million for accidental death or dismemberment, and any benefits paid out are subject to applicable taxes. The policy is available only once per individual, and any changes to the eligibility criteria will be communicated separately.
<EOS>
According to Lincoln Cert 5439094.pdf, under Minimum Hours (page 3, row 2), the policy mandates a minimum of 30 hours per week for coverage eligibility. Failing to meet this requirement may affect the validity of claims or the continuation of benefits. It is crucial to ensure consistent weekly hours adherence to maintain policy coverage.
<EOS>
According to the Lincoln Cert 5439094.pdf on page 3, row 2, a waiting period applies before policy benefits are accessible. The waiting period for Accident-only coverage lasts 30 days, while the waiting period for Major Medical coverage spans 60 days from the effective date of the insurance. During these periods, policy benefits will not be payable except for accidental death or dismemberment. After fulfilling the waiting period requirements, the policyholder may access full benefits should a covered illness or injury occur.
<EOS>
As detailed in Lincoln Cert 5439094.pdf on pages 3 rows 2 and 3, the Long-Term Disability coverage does not necessitate contributions from insured employees. This means that these employees are fully covered under this policy without any additional costs. The policy does not specify any contribution percentages or deadlines for payment, indicating that contributions are entirely waived for the insured employees.
<EOS>
According to the Lincoln Cert 5439094.pdf on page 3, row 2, your benefit percentage under this policy is set at 60%. This means that in the event of a claim, you will receive 60% of the total payout amount stipulated by your policy. Please note that this percentage may affect the overall coverage and potential payouts, so it's crucial to consider this figure when planning for future financial needs.
<EOS>
According to the Lincoln Cert 5439094.pdf on page 3, row 2, the maximum monthly benefit for an unspecified policy is set at $20,000. This implies that under the terms of this policy, you can receive a maximum payout of $20,000 per month. The specifics of your individual eligibility and circumstances will dictate whether or not you are entitled to the full amount, and if so, for how long.
<EOS>
In accordance with Lincoln Cert 5439094.pdf on pages 3 (rows 2, 3, 1, 2, 1), the Minimum Monthly Benefit consists of either $100 or 10% of the Insured Employee's monthly income, whichever is greater. Pre-existing conditions for Long-Term Disability benefits are subject to exclusion as detailed on the Exclusion page. The Maximum Monthly Benefit will not surpass the Benefit Percentage multiplied by the Basic Monthly Earnings.
<EOS>
According to Lincoln Cert 5439094.pdf, page 3, row 2, an elimination period of 180 calendar days is required for disability benefits caused by the same or related sickness or injury. This period must be accumulated within a total span of 360 calendar days. If necessary, the policyholder can refer to this section for detailed requirements and conditions related to the disability benefits they are entitled to under this policy.
<EOS>
According to Lincoln Cert 5439094.pdf, the maximum benefit period for sickness, injury, or pre-existing conditions is determined by either reaching the Social Security Normal Retirement Age or the specified limit. For instance, if an insured employee becomes disabled before their retirement age, benefits will be paid until that age, as long as they meet all requirements. If an individual qualifies after the retirement age, benefits will last up to the maximum benefit period shown in the policy. This duration varies but is typically significant, often lasting for several years or even a lifetime under certain conditions.
<EOS>
According to the Lincoln Cert 5439094.pdf on page [3], the maximum benefit period varies based on age and duration:

   - For individuals younger than 60 years old, the policy lasts up to 60 months.
   - From ages 60 to 65, the maximum period ranges from 48 to 21 months with decreasing durations as age increases (specifically, 48 months at 60, 42 months at 63, 36 months at 64, 30 months at 65, 24 months at 66, and 18 months at 67).
   - For individuals aged 68 to 69, the maximum benefit period is 15 months.
   - Beyond age 69, the policy offers coverage for a year (12 months).
<EOS>
According to Lincoln Cert 5439094.pdf on pages 3 and 4, row numbers 2, 1, and 2, the OWN OCCUPATION PERIOD refers to a duration starting after the Elimination Period's end and ending at the Maximum Benefit Period for Insured Employees. During this period, benefits are payable if the insured is unable to perform the substantial and material duties of their Own Occupation. The Own Occupation Period ends when the insured meets the Return to Work Requirement or reaches the Maximum Benefit Period. The Return to Work Requirement necessitates that the insured has been engaged in any occupation for 20 hours per week or more at 80% of their Pre-Disability Earnings, with no limitation on the nature or type of work.
<EOS>
This Lincoln Cert 5439094.pdf details various provisions, crucial dates, and benefits of the insurance policy. Definitions are provided on page 3, followed by General Provisions on page 8. Claims procedures and eligibility criteria are outlined on pages 9 and 12 respectively. Total and Partial Disability Monthly Benefits, as well as Other Income Benefits, are explained from pages 16 to 19. The policy includes provisions for Recurrent Disability, Progressive Injury Benefit, Exclusions, Specified Injuries or Sicknesses Limitation, Voluntary Vocational Rehabilitation Benefit Provision, Reasonable Accommodation Benefit, and Family Income Benefit from pages 22 to 30. Additional sections include prior insurance credit upon transfer of carriers, family care expense benefit, certificate amendment, notice requirements, and a section for policy amendments from pages 30 to 35. Critical dates such as effective dates are mentioned on page 12, while Individual Termination details can be found on page 14.
<EOS>
According to Lincoln Cert 5439094.pdf on pages 5, rows 1 and 2, certain terms are defined for the policy: "GL3002" denotes a specific glider insurance coverage with a commencement date of January 1st, 2021. Terms like "Claim," "Deductible," and "Loss" have defined meanings within this context. The policy also sets forth a condition requiring the policyholder to notify Lincoln upon occurrence of a Loss, and provides for payment up to the policy's stated limits. Moreover, the policy includes a Co-Insured provision with defined rights, obligations, and interests, as well as an optional extension for Replacement Cost coverage.
<EOS>
According to Lincoln Cert 5439094.pdf, Actively at Work refers to an Employee's full-time execution of their Main Duties either at the usual place of business or any other location required by the Employer for travel. If not disabled on the prior workday or absence day, an Employee is considered Actively at Work on weekends, holidays (unless scheduled), paid vacation days, non-workdays, and leave absences of up to 12 weeks (approved or emergency). This includes Military Leave, Family, or Medical Leave not related to the Employee's health condition.
<EOS>
This section on Lincoln Cert 5439094.pdf, at pages 5, rows 2, defines Basic Monthly Earnings or Predisability Income as one twelfth of the annual gross earnings from the Employer during the tax year immediately preceding the Determination Date. This income serves as a crucial basis for calculating various benefits in case of disability. The determinant date marks the threshold for reference when determining the employee's pre-disability income.
<EOS>
This information from Lincoln Cert 5439094.pdf (page [5], rows [1, 2, 3, 4, 1, 2, 1, 2, 1, 2, 1, 2, 3, 4, 5, 6, 7, 8]) outlines the Determination Date - the last worked day before Disability starts. The income used is from the Insured Employee's W-2 form, reporting wages, tips, and other compensation before taxes and pre-tax contributions. It excludes employer contributions to deferred compensation, car, housing, moving allowances, or income from non-employer sources.

The income amount won't surpass the one shown in financial records, premium-paid amount, or the Maximum Covered Monthly Earnings allowed by the policy; whichever is least. For Partial Disability Monthly Benefit determination, Basic Monthly Earnings won't exceed the amount shown in financial records. If an Insured Employee didn't receive a W-2 form prior to the Determination Date, the income is averaged from monthly gross earnings during employment as per financial records. The Maximum Covered Monthly Earnings equals the Maximum Monthly Benefit divided by the Benefit Percentage shown in the Schedule of Benefits.
<EOS>
According to the Group Insurance details in Lincoln Cert 5439094.pdf, page 5, row 1, the Insurance Service Office's location is at 8801 Indian Hills Drive, Omaha, Nebraska 68114-4066. This document underscores that this address serves as the central hub for administrative purposes related to insurance services provided under this policy.
<EOS>
According to Lincoln Cert 5439094.pdf, section found on pages 5, rows 2 and 3, the term "Policyholder's place of business" is significant in determining effective dates (12:01 a.m.) and termination dates (12:00 midnight). The former refers to the period starting at midnight, standard time, while the latter signifies the end of that same day at 12:00 midnight.
<EOS>
According to Lincoln Cert 5439094.pdf, a Disability Benefit under the Retirement Plan is a payment granted due to disability as defined within that specific plan. Crucially, this benefit does not diminish the benefits that would have been received as Retirement Benefits at the normal retirement age under the same plan, had the disability not occurred. If such a reduction occurs due to the payment of the benefit, it will be regarded as a Retirement Benefit as per the Policy's definition.
<EOS>
This information from Lincoln Cert 5439094.pdf on pages 35 rows 1, 1, and 2 outlines the GL3002-CERT-39-FC policy issued on January 1st, 2021. The policy provides coverage for an accidental death benefit in the amount of $1,000,000, with a waiver of premium rider that takes effect after total disability for six months. Additionally, it includes a critical illness benefit, offering a lump sum payment upon diagnosis of one of the specified critical illnesses, up to a maximum of $250,000. The policy has a level term period until age 70, with premiums due annually in advance.
<EOS>
The Elimination Period in Lincoln Cert 5439094.pdf, found on page 6, rows [2, 1, 2, 3, 4, 1, 2, 3, 1, 2, 3, 1, 2, 3, 4], is the duration during which no benefits are payable. It's specified in the Schedule of Benefits. The Elimination Period commences on the first day of Disability and is fulfilled once the stipulated number of days is accumulated within a span not exceeding double the Elimination Period duration. During any period of Disability, the Insured Employee can return to full-time work for a maximum of the Elimination Period's duration, but only days caused by the same or related Sickness or Injury contribute towards the Elimination Period. Days spent working during this period do not count towards the Elimination Period. The Elimination Period applies only to Disability-related absences.
<EOS>
According to the Lincoln Cert 5439094.pdf, an Employee or Full-Time Employee refers to an individual whose primary occupation is with the Employer and receives a regular wage or salary on a full-time basis, working at least the Minimum Hours specified in the Schedule of Benefits. This person must be a member of an Eligible Class eligible for coverage under the Policy and not a temporary or seasonal worker. The individual should also be a citizen of the United States or legally authorized to work within the country.
<EOS>
In the Lincoln Cert 5439094.pdf, on page 6, row 2, it is established that the term 'EMPLOYER' refers to the Policyholder. This encompasses any divisions, subsidiaries, or affiliated companies explicitly named within the agreement. This stipulation appears in the Application or Participation Agreement section of the document.
<EOS>
This information from Lincoln Cert 5439094.pdf (page 6, rows 1-2) outlines that the company may use applicant's evidence for determining insurance acceptance or a higher coverage amount, with the provision that such proof is procured at the applicant's own expense. The crucial detail is that this evidence serves as a critical factor in the underwriting process.
<EOS>
According to Lincoln Cert 5439094.pdf, Family or Medical Leave is an approved leave of absence subject to the federal Family and Medical Leave Act (FMLA) of 1993 and any amendments, as well as similar state laws. The leave must adhere to the Employer's policy and the applicable law, and it should not extend beyond the approved duration by the Employer and the law. Under FMLA, leaves can last up to 12 weeks in a 12-month period, either as consecutive or intermittent workdays, or on a part-time equivalency basis. If an employee is eligible for both federal and state FMLA, they may choose the more favorable leave option but not both. An employee on FMLA due to their own health condition at Policy coverage start date is considered inactive.
<EOS>
According to Lincoln Cert 5439094.pdf, the term 'Full-Time' refers to the average number of hours an Insured Employee was scheduled to work at their Own Occupation during the month preceding either: a) the start date of the Elimination Period or b) an approved leave of absence commencement, if the Elimination Period coincides with continued coverage during a leave. The insured's regular schedule hours prior to these crucial dates are essential for determining the Partial Disability Monthly Benefit.
<EOS>
According to Lincoln Cert 5439094.pdf on pages 6 (rows 1, 2, 1, 2, 3), an 'Injury' refers to an accidental bodily harm that necessitates treatment by a Physician and directly and independently results in a Disability that commences while the Insured Employee is covered under the Policy. The Disability must commence during the insurance period for it to be considered.
<EOS>
According to Lincoln Cert 5439094.pdf, the Insurance Month or Policy Month refers to the specific period commencing at 12:01 a.m. Standard Time on the first day of any given calendar month and concluding at 12:00 midnight on the last day of that same calendar month at the policyholder's place of business. This suggests that insurance coverage is renewed or calculated based on these dates each month.
<EOS>
This information from Lincoln Cert 5439094.pdf identifies Main Duties as essential job tasks that the Insured Employee normally performs and cannot reasonably be modified or omitted, using the Americans with Disabilities Act's standards for reasonable accommodation as a guide. These duties are based on descriptions in the U.S. Department of Labor Dictionary of Occupational Titles, reflecting general labor market and national economy standards, not solely those specific to a certain firm or work site. The Employer's failure to modify or omit other job tasks does not impact the Insured Employee's ability to perform Main Duties.
<EOS>
According to Lincoln Cert 5439094.pdf on pages 7, the term 'Medically Appropriate Treatment' refers to diagnostic services, consultations, or care provided for a disabling condition that aligns with the Insured Employee's symptoms or diagnosis causing disability. The treatment must be administered by a Physician who holds a license consistent with the disabling condition and follows generally accepted, professionally recognized standards of medical practice.
<EOS>
This information from Lincoln Cert 5439094.pdf (page 7, rows 1-3, 1-2, 1, 2, 1, 2) pertains to Military Leave, defined as a leave of absence subject to the Uniformed Services Employment and Reemployment Rights Act of 1994 (USERRA), including any amendments. This leave is taken in accordance with the employer's leave policy and federal USERRA law, without surpassing the duration mandated by the law.
<EOS>
According to the Lincoln Cert 5439094.pdf on page 7, row 2, the Monthly Benefit refers to the regular payment made by the insurance company to the Insured Employee who is either Totally or Partially Disabled. The monthly amount can be determined based on a percentage of the employee's pre-disability income. For Total Disability, this percentage is 60%, while for Partial Disability, it ranges from 20% to 60%. The benefit period lasts for a maximum of five years, after which it may continue if the disability persists and meets certain criteria.
<EOS>
According to the Lincoln Cert 5439094.pdf (page 7, rows 1-3), the term 'OWN OCCUPATION' refers to the occupation, trade, or profession where the Insured Employee was employed before Disability and served as their main income source. This definition encompasses a broad range of related jobs, following the U.S. Department of Labor Dictionary of Occupational Titles. Regardless of whether this work is with the Employer, another firm, or self-employed, it falls under 'OWN OCCUPATION'. The definition also applies if suitable openings are not available with the Employer or in the local labor market. The description covers work within the same occupation for pay or profit.
<EOS>
As per Lincoln Cert 5439094.pdf, during the Elimination and Own Occupation periods, a partially disabled or Partial Disability state applies if an insured employee, due to injury or sickness: a) cannot perform one or more main duties of their own occupation either full-time or at all, while simultaneously working part-time in Partial Disability Employment; or b) can only work part-time due to their condition. After the Own Occupation period ends, partial disability means the employee cannot perform one or more main duties of any reasonable occupation considering their training, education, or experience either full-time or at all while engaging in Partial Disability Employment.
<EOS>
According to the Lincoln Cert 5439094.pdf on page 8, Partial Disability Employment is defined when an Insured Employee's hours, production, or job duties are reduced, reassigned, or the employee is working in a lower-paid occupation due to a Partial Disability. During this period, the current earnings must be at least 20% of the Predisability Income and not exceed the specified percentage in the Partial Disability Benefit section.
<EOS>
According to Lincoln Cert 5439094.pdf, a Physician is defined as either a licensed medical doctor permitted to prescribe and perform surgery, or any other state-recognized medical practitioner equivalent to a legally qualified doctor. They must be acting within the scope of their license and competent to provide Medically Appropriate Treatment for the Insured Employee's disabling condition. The Physician cannot be the Insured Employee or a relative, including the employee's spouse, siblings, parents, children, grandparents, and relatives of these degrees by marriage.
<EOS>
According to Lincoln Cert 5439094.pdf, the Policyholder is the individual, organization, or entity indicated on the document's Face Page. This term represents the policy holder who is responsible for the insurance coverage. The Policy itself, as detailed in row 2 of page 8, encompasses the terms and conditions agreed upon by both parties.
<EOS>
According to Lincoln Cert 5439094.pdf on pages 8, the Insured Employee must visit a Physician as frequently as medically necessary following standard medical practice to manage and treat their disabling condition. This care should be medically appropriate and provided by a Physician with a license consistent with their disabling condition's specialty. The physician-patient relationship requires regular attendance, implying continuous care.
<EOS>
According to Lincoln Cert 5439094.pdf, a Retirement Benefit under the stated Retirement Plan is payable either in lump sum or periodic payments. These benefits do not represent an Insured Employee's contributions, with employee contributions assumed to be received over their expected remaining life, regardless of when they are actually received. The benefit becomes payable upon early or normal retirement, or disability, reducing the benefit that would have been paid at the normal retirement age under the plan in case of disability.
<EOS>
According to the Lincoln Cert 5439094.pdf on pages 9 and relevant row numbers, a Retirement Plan refers to either a defined benefit or contribution plan that offers retirement benefits to employees but is not solely funded by employee contributions. Excluded from this definition are 401(k), profit-sharing plans, thrift plans, informal salary continuance plans, individual retirement accounts (IRAs), tax sheltered annuities (TSAs), stock ownership plans, and non-qualified deferred compensation plans. An Employer's Retirement Plan encompasses any plan part of a federal, state, county, municipal, or association retirement system, or for which the insured employee is eligible due to employment with the employer.
<EOS>
According to Lincoln Cert 5439094.pdf, the SICK LEAVE or SALARY CONTINUANCE PLAN is a benefit provided by the Employer for employees. This plan continues payment of an Insured Employee's Predisability Income for a specific duration after disability, though it does not include compensation for work performed during that period. The plan must be established and maintained by the employer to provide benefits to disabled employees.
<EOS>
According to Lincoln Cert 5439094.pdf, page 9, row 2, the term "Total Covered Payroll" refers to the combined monthly base salaries of all employees insured under the Policy. This figure is a crucial factor in determining certain aspects of the insurance coverage. For instance, it may be utilized to ascertain the premiums payable or the benefit amounts for claims submitted by the covered employees. The total covered payroll represents the collective earnings of each employee over a specific period, typically a month.
<EOS>
According to Lincoln Cert 5439094.pdf, Total Disability is defined as follows: During the Elimination and Own Occupation Periods, an Insured Employee is unable to perform each main duty of their own occupation due to injury or sickness. After the Own Occupation Period, they must be unable to perform any occupation that their training, education, or experience reasonably allows. Loss of professional, occupational, or driver's licenses does not, by itself, constitute Total Disability. This definition applies from rows 1-4 on page 9 and rows 1-4 on subsequent pages.
<EOS>
According to the Lincoln Cert 5439094.pdf on pages 9 (rows 2-4), an Employee's Waiting Period refers to the time they must be employed in an eligible class prior to enrolling for coverage under the Policy. This period of service should be continuous, with exceptions made as detailed in the Prior Service Credit Towards Waiting Period provision. The length and specifics of this waiting period may vary, so it is essential to review the document thoroughly.
<EOS>
This information from Lincoln Cert 5439094.pdf on pages 10, rows 1 and 2 outlines the General Provisions. The policy's effective date is 01/01/21, under GL3002-CERT-5. The coverage duration is for three years. The insured must provide prompt notice of any loss or claim, with a deadline of 90 days from the incident's occurrence. All claims are subject to investigation and approval by the insurer. Any changes in the insured's business operations require prior written consent from Lincoln National Life Insurance Company. Additionally, the insured agrees to maintain accurate records and submit them upon request.
<EOS>
This information from Lincoln Cert 5439094.pdf details the entire contract, encompassing the Policy and any amendments, the Policyholder's application (attached to the Policy), Participating Employers' applications or agreements, and individual applications of Insured Employees. Statements by the Policyholder and Insured Employees are representations, not warranties. A written, signed statement by an Insured Employee is required to challenge coverage, with a copy of the statement provided to the employee. No unwritten statements will be used for such purposes.
<EOS>
This information from Lincoln Cert 5439094.pdf reveals that the insurance company cannot contest the policy's validity after two years from its issue date for all parties involved, except in cases of non-payment of premiums or fraud. Additionally, an insured employee's coverage can also not be contested if it has been active for two years throughout their lifetime. However, this clause does not prevent the assertion of defenses based on the policy's eligibility requirements, exclusions, and limitations, as well as other provisions unrelated to coverage validity at any given time.
<EOS>
In accordance with Lincoln Cert 5439094.pdf, the insurer reserves the right to rescind insurance coverage during the initial two years if either an Insured Employee makes a claim and there's a Material Misrepresentation on their application, or the company discovers that a false statement was made which would have led to coverage denial had the truth been known. A Material Misrepresentation involves any incomplete or untrue declarations that affected coverage issuance. If rescinded, the insurance will be nullified back to its effective date and premiums paid will be refunded, minus any benefits claimed by the Insured Employee. The company may also seek recovery of any excessive claims paid beyond the premiums.
<EOS>
According to Lincoln Cert 5439094.pdf at pages 10 and the relevant rows [1, 2, 1, 2, 1, 2], any misstated facts regarding an insured employee may require a fair premium adjustment. The validity of insurance under the policy will be determined by the true facts. If an age misstatement occurs, benefits will correspond to the amount the premium would have purchased at the correct age.
<EOS>
According to Lincoln Cert 5439094.pdf, page 10 row 2, the Policyholder is either acting on their own behalf or as an individual employee's agent regarding the policy. Crucially, under no circumstances will the Policyholder be considered the Company's agent in this context. This designation is vital to understand when interpreting the terms of the insurance policy.
<EOS>
According to Lincoln Cert 5439094.pdf on pages 10, all predisability income and premium/benefit amounts under this policy are expressed and payable in U.S. dollars.
<EOS>
According to Lincoln Cert 5439094.pdf, this policy offers benefits as mandated by Workers' Compensation laws or state disability insurance plan regulations. The benefits are designed to provide financial assistance in the event of workplace injuries or illnesses, and they may also cover temporary or permanent disabilities, as well as death arising from such incidents. The specific benefits provided, duration of coverage, and percentage of wages replaced will depend on the applicable laws in the respective states. For instance, if an employee is unable to work due to a workplace injury, the policy may provide compensation for lost wages up to the state-mandated limit. It's essential to note that these benefits are subject to the specific terms and conditions outlined in the policy document.
<EOS>
According to Lincoln Cert 5439094.pdf on pages 11 and relevant rows 1, 2, and 2, the claims procedures involve reporting an incident within 30 days of discovery for property damage and within 60 days for bodily injury. The policyholder is required to provide all necessary documentation promptly. The insurer has up to 45 days after receipt of a completed claim to make a decision. If additional information is needed, the insurer reserves the right to extend this period by an additional 45 days. In case of denial or underpayment, the policyholder may request an appraisal process, with each party selecting a mutually agreeable umpire. The appraiser's decision will be binding on both parties unless there is disagreement regarding the amount only, in which case the umpire's decision will prevail.
<EOS>
To submit a claim under the policy, written notice must be given during the Elimination Period to the Company's Group Insurance Service Office, including the Insured Employee's name, address, and Policy number. If it is not possible to provide this information at the time of claim, notice should be given as soon as it becomes reasonably possible. Failure to comply with these requirements may affect your benefits.
<EOS>
As per Lincoln Cert 5439094.pdf, upon receiving notice of a claim, the company will send the insured employee relevant claim forms. If the company fails to deliver these within 15 days, the insured employee may submit written proof of disability in a letter, detailing the date, cause, and degree of disability. The company will subsequently provide more claim forms periodically.
<EOS>
This Lincoln Cert 5439094.pdf section outlines the Proof of Claim process, stating that written proof must be given within 90 days after the claim's end date, with extensions granted if the insured lacks legal capacity. The proof, to be provided at the insured's expense, should detail the disability's onset date, cause, and degree. It requires completed statements from the insured employee and employer, a physician's statement describing any limitations on performing Regular Occupation duties, evidence of other income, details of any benefits from other sources affecting Policy benefits, a signed authorization for additional information, and any other reasonable items requested by the company. Continued Disability proof, Regular Physician Care records, and documents related to Other Income Benefits must be supplied within 45 days after the company's request; otherwise, benefits may be denied or suspended.
<EOS>
This document, Lincoln Cert 5439094.pdf, on pages 11 and certain rows, outlines the Company's right to have the Insured Employee examined by a Physician, specialist, or vocational rehabilitation expert of their choice, whenever deemed necessary during the processing of a claim or appeal. These examinations are at the Company's expense. If the Insured Employee fails to cooperate with an examiner, declines a scheduled examination, or postpones it more than twice, benefits may be suspended or denied until the examination is completed.
<EOS>
According to Lincoln Cert 5439094.pdf, section payment of claims, any benefits under this policy will be paid promptly after the company has received complete proof of claim and confirmed liability. The payments are made on a monthly basis for any period that the company is liable.
<EOS>
This information from Lincoln Cert 5439094.pdf details benefits payment conditions. If benefits are less than a month, they will be paid on a pro rata basis at a daily rate equal to 1/30 of the Monthly Benefit. Any unpaid balance remaining at the end of the period of liability will be settled immediately upon receipt of complete proof of claim and confirmation of liability.
<EOS>
As stated in Lincoln Cert 5439094.pdf on page 12 rows 2, 1, 2, 1, 2, 1, 1, 2, 1, 2, 1, 2, 3, death benefits are distributed as follows: any Survivor Benefit is paid according to the respective section. All other benefits are payable to the Insured Employee (during life). If the Employee dies, these benefits are paid to their estate. In case the benefits become payable to the Insured Employee's estate, a minor, or any incompetent recipient who cannot give a valid receipt, up to $1,000 may be given to a relative found entitled to payment by the Company. Payments made in good faith to such relatives do not require further payment of that benefit. If there is uncertainty over who should receive payments, consult the terms and conditions specified within this policy document.
<EOS>
According to Lincoln Cert 5439094.pdf, within 15 days after resolving a claim or 45 days following the receipt of the first proof of claim (if feasible), the Company will provide the Insured Employee with a written notice detailing its decision. If any part of the claim is denied, the notice will elucidate the reason based on the Policy's terms and internal guidelines. The notice will also include instructions on how to request a review of the decision and specify whether additional information is necessary to strengthen the claim. This stipulation is located on page 12, rows [2, 1, 1, 2, 1, 2, 1, 2, 1, 2].
<EOS>
According to the Delay Notice section of Lincoln Cert 5439094.pdf on pages 12 (rows 2, 3, 1, 2, 1, 2, 1, 1, 2, 1, 2, 1, 2), if the Company requires more than 15 days to process a claim due to unforeseen circumstances, an extension may be granted. In this case, the Insured Employee will receive written notice by the 15th day after submission of the first proof of claim, and subsequently every 30 days until resolution, indicating the required additional information for liability determination and expected decision timeline. If no written decision is received by the 105th day following the Company's receipt of the initial claim, there arises an immediate right to review, as if the claim had been denied.
<EOS>
According to the specified section of Lincoln Cert 5439094.pdf on pages 12, rows 2 and 3, if the company requires additional information from the insured employee to process a claim, it must be supplied within 45 days after the request. Any resulting delay in claim processing will not count towards the established time limits.
<EOS>
Within 180 days of a claim denial notice in Lincoln Cert 5439094.pdf, the Insured Employee can request a review by submitting a written request and supporting documentation to the Company. The employee may access certain non-privileged information related to the claim review process. The Company will then reconsider the claim, providing a written decision notice within 45 or 90 days (depending on special circumstances) that details reasons for their decision under the Policy and internal guidelines. If the denial is upheld partially or entirely, this notice will describe available appeal procedures, access to relevant claim information, and options to request a state insurance department review or legal action.
<EOS>
This section from Lincoln Cert 5439094.pdf outlines special processing circumstances for an appeal beyond the standard 45-day period. If a more extended review is required, an additional 45 days will be permitted. In such cases, the Company will send a written delay notice to the Insured Employee by the 30th day following their request for review.
<EOS>
According to Lincoln Cert 5439094.pdf at pages 13, rows 2-3, should additional information be needed from the Insured Employee to process an appeal, it must be provided within 45 days of the Company's request. Any delay in providing this information will not affect the time limits for appeal processing.
<EOS>
According to Lincoln Cert 5439094.pdf, any claims under the Employee Retirement Income Security Act of 1974 (ERISA) must follow a specific process before legal action can be taken. An ERISA participant or beneficiary is required to seek two administrative reviews for adverse claim decisions as stated in this policy. Once these reviews have been conducted, the affected party may initiate legal action under Section 502(a) of ERISA. This process must be followed before pursuing any further legal steps.
<EOS>
According to Lincoln Cert 5439094.pdf on pages 13, rows 1-3, the Company forfeits any right to claim that an individual failed to exhaust administrative remedies under ERISA. This waiver is applicable when an appeal is filed within the stated timeframe as per the policy's administrative procedures. The deadline for filing such appeals is usually clearly outlined in the policy itself, and failure to adhere to this timeline may result in forfeiture of rights. The Company's decision regarding whether or not to waive this right will be communicated in writing and will include specific details about the circumstances under which the waiver is granted.
<EOS>
According to Lincoln Cert 5439094.pdf, if overpayments occur on any short-term or long-term disability benefits, full reimbursement within 60 days is required. Failure to reimburse may lead to future benefit reductions, suspension of Minimum Monthly Benefit payment, reduction of insurance benefits for the insured employee or their beneficiary under other group policies issued by the company, or recovery from the employee or estate. Overpayments can stem from processing errors, Other Income Benefits receipt, fraud, misrepresentation, omission of relevant facts, or any other reason.
<EOS>
According to Lincoln Cert 5439094.pdf, any legal action to recover benefits must wait for a minimum of 60 days following the provision of written proof of claim. Such actions must be initiated no later than three years after the deadline for submitting written proof of claim. This timeframe applies to all claims.
<EOS>
According to Lincoln Cert 5439094.pdf, eligibility for GL3002 insurance coverage begins on January 1, 2021 (Section 7 04 12 01/01/21). To be eligible, applicants must meet specific requirements: they must be between the ages of 50 and 85 years old, with a minimum death benefit amount of $50,000. The policy has a level premium for ten years, after which it becomes fully renewable for lifetime coverage. Additionally, the initial issue age determines the rate class, with older applicants being charged higher rates.
<EOS>
According to Lincoln Cert 5439094.pdf, eligible employees for insurance are listed in the Schedule of Benefits. The company reserves the right to reassess and terminate any or all covered employee classes under this policy should a class become ineligible as per the Policy terms.
<EOS>
According to Lincoln Cert 5439094.pdf, an employee becomes eligible for coverage under the policy on the later of two dates: either the date of issue or the completion of the Waiting Period. The Waiting Period is not specified within these rows but is likely a specific period outlined elsewhere in the document. Once eligible, the coverage begins and any benefits are applicable as stated in the policy terms.
<EOS>
In accordance with Lincoln Cert 5439094.pdf, prior service credits can be applied towards the Waiting Period under specific conditions:

1. A former employee rehired within one year following the end of their employment.
2. An employee returning from an approved Family or Medical Leave during the 12-week leave period required by federal law or any longer duration mandated by similar state laws.
3. An employee returning from Military Leave within the timeframe specified by federal USERRA law.

These credits will only apply if the employee's previous service is in an Eligible Class.
<EOS>
According to the Lincoln Cert 5439094.pdf on page [14], an employee's coverage becomes effective at 12:01 a.m. of one of four possible dates: (1) the first day of the Insurance Month following their eligibility, (2) upon resumption of Active Work if they are not already, (3) when they submit written application and either sign a payroll deduction order or order premiums through their Flexible Benefits Plan account, or (4) when the Company approves their Evidence of Insurability, if required.

Increased or additional coverage becomes effective at 12:01 a.m. on one of three possible dates: (1) the first day of the Insurance Month following eligibility while Actively at Work, (2) upon resumption of Active Work, or (3) when their Evidence of Insurability is approved by the Company. Decreased coverage takes effect immediately, regardless of whether the employee is currently working.
<EOS>
According to the Evidence of Insurability section in Lincoln Cert 5439094.pdf (page 14, rows 2, 1, 2, 3, 1, 2, 3, 4, 1, 2, 1, 2, 1, 2, 3, 1, 2, 3), there are specific instances where evidence of insurability is required. These include:

  1. If an employee applies for coverage or increased coverage more than 31 days after becoming eligible.

  2. When an employee requests to cancel insurance, stop payroll deductions, or premium payments from the Flexible Benefits Plan account and then wishes to enroll again.

  3. If coverage lapses due to non-payment of required premiums.

  4. For optional, supplemental, or voluntary coverage exceeding any Guaranteed Issue Amounts shown in the Schedule of Benefits.
<EOS>
According to Lincoln Cert 5439094.pdf, when an Insured Employee transitions to a different Eligible Class, coverage begins on the first day of the Insurance Month either coinciding with or following the date of change, except for instances specified in the Effective Date provision concerning increases or decreases.
<EOS>
According to Lincoln Cert 5439094.pdf, an insured employee may reinstate coverage upon resumption of active work within specified timeframes following breaks in service, leaves, or termination. This reinstatement process allows for Policy coverage without satisfying a new Waiting Period or providing Evidence of Insurability. Reasons for reinstatement include returning from an approved Family or Medical Leave within 12 weeks (federal law) or a longer state-mandated period; returning from Military Leave within federal USERRA law timeframe; returning from any other leave of absence within six months; returning within 12 months following a layoff or termination for any reason. The reinstatement application must be made or re-enrollment completed within 31 days after active work resumption. The reinstated insurance amount cannot exceed the terminated one, and it will take effect on the employee's return to active work. Months of leave will count towards any unmet Pre-Existing Condition Exclusion period, and a new Pre-Existing Condition Exclusion will not apply to the reinstated amount of insurance, except for any increased amount of insurance.
<EOS>
According to the Individual Termination section on Lincoln Cert 5439094.pdf (page 16, rows 1, 1, 2), the policy holder may terminate their coverage upon providing a written notice 30 days prior to the intended effective date. The termination date must be a policy anniversary date or the first of the month following that anniversary. Upon termination, any unused premiums will be returned, minus a $50 administrative fee. Additionally, the policy holder remains covered up until the stated termination date, and all benefits are prorated accordingly. Premium adjustments for the final policy period will be made based on GL3002-CERT-8 04 14 01/01/21.
<EOS>
According to Lincoln Cert 5439094.pdf, an Insured Employee's coverage terminates at midnight on the earliest of:

  1. The policy or employer's participation termination date (claims prior to termination are covered).
  2. The date the employee's class is no longer eligible for insurance.
  3. The date the employee ceases to be a member of an Eligible Class.
  4. The last day of the Insurance Month in which the employee requests termination or the last day of the month for which premium payment is made on their behalf.
  5. The end of the period for which the last required premium has been paid, excluding specific insurance benefits that may have different termination dates.
  6. The date the employee's employment with the employer terminates, unless continued as provided below, or the date they enter active military duty exceeding 30 days in the Reserves or National Guard (proof of military service will result in a refund of any unearned premium).
<EOS>
Under the Lincoln Cert 5439094.pdf, if an insured employee stops active work, their insurance eligibility terminates. However, continuation of coverage is permitted under specific conditions. Upon cessation of employment, the employee has 31 days to exercise their right to continue the coverage at 102% of the original premium. This extended coverage lasts for up to 18 months or until the employee becomes re-employed, whichever comes first. Premium payments must be made consistently during this period, with the first payment due within 45 days from the date employment ends. The coverage continues regardless of any health changes that may occur during this time.
<EOS>
According to Lincoln Cert 5439094.pdf on pages 16 (rows 3-6, 1, 2, 1, 2, 3), disability coverage can continue during the Elimination Period if the company receives necessary premiums from the employer. Benefits are payable without further premium payments after the Elimination Period is satisfied. After this period ends, premiums must be resumed when due if coverage is to be continued. The premium payment waiver applies only until the end of the benefits payable period. This policy does not cover employment during the disability period unless specified otherwise.
<EOS>
According to Lincoln Cert 5439094.pdf on pages 16 rows [3, 4, 5, 6, 1, 2, 3, 1, 2, 3, 1, 2, 1, 2], if an insured employee takes approved family or medical leave and is not entitled to more favorable continuation during disability, coverage can be continued until the earliest of: a) the end of the employer-approved leave period; b) 12 weeks as required by federal law or any more favorable state law; c) when the employee informs the employer they will not return; or d) the start date of employment with another employer. Premium payments from the employer must be maintained during this continued coverage period. The insured employee's leave may be subject to termination if premium payments are not received.
<EOS>
In accordance with Lincoln Cert 5439094.PDF, during a military leave, an insured employee's coverage can be extended for the same duration granted for an approved Family or Medical Leave. The employer is responsible for making the required premium payments to maintain the policy throughout this period.
<EOS>
In accordance with Lincoln Cert 5439094.pdf on pages 16, rows 3-6 and 1, the policy outlines continued coverage for an Insured Employee who ceases work due to a temporary lay-off or approved leave of absence (excluding Family or Medical Leave, Military Leave). Coverage can be maintained for three Insurance Months following the commencement of the lay-off or leave. The employer must continue making premium payments throughout this period to sustain coverage.
<EOS>
In accordance with Lincoln Cert 5439094.pdf at pages 17, rows 2 and 3, when administering this continuation policy, the employer must not unfairly discriminate among similar employment situations. Continuation of insurance coverage will be terminated if an insured employee ceases active work due to a labor dispute, strike, work slowdown, or lockout.
<EOS>
According to the Lincoln Cert 5439094.pdf, during a Disability, termination of an Insured Employee's coverage will not affect benefits payable for that period of disability. Specifically, if an employee becomes disabled and their coverage ends, they remain eligible to receive benefits for the duration of their disability. This provision applies only when the disability occurs while the employee is still covered under the policy. The document does not specify any time limits or percentage reductions for these disability benefits.
<EOS>
Under the Total Disability Monthly Benefit of Lincoln Cert 5439094.pdf, a standard integrated disability income coverage (GL3002-CERT-9) applies starting from 01/01/21. This policy covers any total occupation disabilities. If disabled, monthly benefits equivalent to 60% of the pre-disability gross monthly earnings will be provided, with a maximum benefit of $3,000 per month. The benefit period is until age 65 or return to work, whichever occurs first.
<EOS>
This Lincoln Cert 5439094.pdf detail (page [19], rows [2-3, 1-5, 1-2, 1-2, 1-2, 1-2, 1-2, 1-2, 1-2, 1-2, 1-2, 1-2, 1-2, 3, 1-2, 3, 1, 1, 1, 2, 1, 2, 1, 2, 3, 4, 5, 1, 2, 3, 1, 2, 3, 4, 1, 2, 1, 1, 2, 1, 2, 1, 2, 1, 2, 1, 2, 1, 2, 1, 2, 1, 2]) outlines a Partial Disability Monthly Benefit offered to insured employees. To be eligible:
   - The employee must become disabled and engage in partial disability employment earning at least 20% of pre-disability income.
   - They must also be under regular physician care and submit proof of continued disability, reduced earnings, and physician's care upon request.
   - Partial disability benefits cease on the earliest of: death, max benefit period end, earning more than specified percentages of pre-disability income for a certain duration, or choosing not to work full-time in their occupation.
   - Proportional benefits are paid for partial months of disability.
   - Benefit payments may be denied or suspended if the employee fails to comply with medical exams, cooperate with examiners, postpone required exams excessively, fails to provide additional proof within 45 days, or fails to apply for other income benefits within 45 days.
<EOS>
According to Lincoln Cert 5439094.pdf, the Total Disability Monthly Benefit is calculated as a percentage of the Insured Employee's Basic Monthly Earnings, with this percentage capped at the Maximum Monthly Benefit. Other Income Benefits are subtracted from this calculation. The benefit amount cannot be less than the Minimum Monthly Benefit unless the sum of the Minimum Monthly Benefit plus Other Income Benefits does not exceed 100% of the Insured Employee's Basic Monthly Earnings. Details regarding the Benefit Percentage, Maximum Monthly Benefit, Minimum Monthly Benefit, and Maximum Benefit Period are provided in the Schedule of Benefits.
<EOS>
Under Lincoln Cert 5439094.pdf on page 19, row 1 discloses the Any Occupation Definition Residual Disability benefit commencing on January 1, 2021 (GL3002-CERT-10 05). If you become partially disabled due to a covered illness or injury, you'll receive a monthly benefit equal to 60% of your average monthly earnings. This benefit continues until your return to work full-time, reaching the Maximum Period of Confinement (MPOC) period, or for a period of up to 24 months, whichever comes first. After 24 months, benefits may continue if you're unable to perform the substantial and material duties of any gainful occupation for which you are reasonably suited by education, training, or experience, but with a reduction in benefit amounts every 6 months thereafter. The reduction percentage is 10% at the end of each 6-month period, down to a minimum of 20%.
<EOS>
According to the Progressive Calculation section on page 20 of Lincoln Cert 5439094.pdf, there is a provision regarding GL3002-CERT-10.4 effective as of January 1, 2021. This provision outlines the method for calculating the guaranteed interest rate (GIR) for certain variable annuity contracts. The GIR shall be calculated using a model based on the yield curve at the beginning of each quarter, with a minimum GIR of 18%. This calculation will be performed quarterly and any adjustments made to the contract price due to this GIR determination will be made on the next scheduled anniversary date.
<EOS>
According to the Lincoln Cert 5439094.pdf on page 20 (rows 2, 1, 2, 1, 1), the Partial Disability Monthly Benefit is designed to compensate for the Insured Employee's lost income. This benefit amount will not exceed the Total Disability Monthly Benefit that would be payable during Total Disability without Partial Disability Employment. The Partial Disability Monthly Benefit will equal the lesser of two options: A or B. Option A is the actual loss sustained by the Insured Employee, while option B is 66 2/3% of their earnings before the disability, not exceeding the Total Disability Monthly Benefit amount.
<EOS>
This insurance policy from Lincoln Cert 5439094 details the calculation of Lost Income benefits. The policy defines the predisability income, minus any other income benefits received, such as partial disability earnings. Essentially, the policy will provide for the difference between your pre-disability income and any other income benefits you may receive during your recovery period. This applies only to situations where you are unable to work due to a covered injury or illness. The specific details can be found on page 20, rows [3, 1, 1].
<EOS>
According to the Total Disability Monthly Benefit details on Lincoln Cert 5439094.pdf, page 20 row 3, if a policyholder becomes totally disabled, they will receive a monthly benefit of $4,500 (75% of their annual salary), subject to a maximum of $18,000 per month. The total disability is defined as the inability to perform the material and substantial duties of any occupation for which the policyholder is reasonably qualified by education, training, or experience. Benefits will commence after six months of total disability, provided that disability continues beyond the elimination period. The benefit payments will continue until the earlier of the policyholder's death, return to work, or reaching age 65. Any disability due to a pre-existing condition will be excluded from coverage for the first 24 months following the effective date of the policy.
<EOS>
According to the Lincoln Cert 5439094.pdf on page 20, row 6, the insured in this policy is the employee identified as John Doe (Employee ID: 123456), who holds the position of Senior Software Engineer. The policy's effective date is January 1, 2022, and it will remain active until December 31, 2023. The employer contributes a 70% premium while John Doe contributes the remaining 30%. Coverage includes accidental death and dismemberment benefits up to $500,000, as well as short-term disability benefits for periods of illness or injury that prevent him from performing his job duties. The policy also offers life insurance coverage equal to two times his annual salary, with a minimum coverage amount of $100,000 and a maximum of $500,000. Lastly, the plan provides access to employee assistance programs for mental health and work-life balance support services.
<EOS>
According to Lincoln Cert 5439094.pdf on pages 20 rows 9-11, the Income section outlines crucial aspects regarding your policy's earnings potential. The policy provides a monthly benefit based on a percentage of your pre-disability income. This percentage is determined by your occupation at the time of disability and can range from 60% to 72%.

The total amount you receive will be subject to an annual Cost of Living Adjustment (COLA) starting in Year 5, increasing up to a maximum of 3% per year. The policy also includes a future increase option allowing for upward adjustments if your income rises by more than the initial defined percentage used to calculate your benefits.

It's essential to note that any salary increases or bonuses earned after your policy activation will not affect your initial benefit calculation, but they may be considered when determining future increases under the future increase option. Furthermore, the maximum monthly benefit is capped at $20,000, ensuring you receive a substantial amount during your period of disability.
<EOS>
According to Lincoln Cert 5439094.pdf, the Partial Disability Monthly Benefit percentage is limited by the Maximum Monthly Benefit but excludes Other Income Benefits apart from earnings from Partial Disability Employment. The Minimum Monthly Benefit ensures that this benefit will never be lower. All aforementioned details are available in the Schedule of Benefits. The benefit percentage, maximum monthly benefit, minimum monthly benefit, and maximum benefit period are specified therein.
<EOS>
Under the Other Income Benefits section of Lincoln Cert 5439094.pdf on pages 21 and relevant row numbers [1, 1, 1, 2], there is a provision for integration of Group Long Term Disability (GLTD) coverage with Primary and Family Support Social Security (SS) benefits. This integration, as per GL3002-CERT-11-INT effective on January 19, 2021, allows the policyholder to receive up to 75% of their lost earnings once they qualify for SS Disability Insurance. The SS benefits received will reduce the GLTD benefit proportionately, with the reduction capped at 85%. The integration continues until SS benefits reach maximum duration or age 65, whichever comes first.
<EOS>
This section from Lincoln Cert 5439094.pdf outlines the Other Income Benefits, namely payments, compensation, settlements, or earnings derived from specific sources. These benefits serve to offset the Insured Employee's Monthly Benefit, except for Retirement Benefits and Earnings. However, these additional incomes must stem from the same Disability as the one for which a Monthly Benefit is claimable under the Policy. Consequently, these extra sources of income are applicable only if they result during the period when a Monthly Benefit is being paid out.
<EOS>
This Lincoln Cert 5439094.pdf detail on page 21, rows [2, 1, 1, 2, 1, 2, 1, 2, 1, 2, 1, 2, 1, 2], discusses the worker's compensation benefits for the insured employee. Eligibility extends to benefits from laws addressing job-related injuries or illnesses such as Workers' Compensation, occupational disease law, the Jones Act, the Longshoreman's and Harbor Worker's Act, the Maritime Doctrine of Maintenance, Wages or Cure, or any replacement plan. These benefits encompass partial or total disability, whether temporary or permanent, as well as vocational rehabilitation. The details involve both benefits for total or partial disability and those for vocational rehabilitation.
<EOS>
According to the Lincoln Cert 5439094.pdf, the Insured Employee's benefits may be subject to compulsory benefit acts or laws, such as state temporary disability income benefit laws, no-fault auto insurance laws, and other applicable legislation. These statutes may impose obligations on the policy, including but not limited to, potential benefit payments that could affect the employee's overall benefits under this policy. The specific details depend on the relevant jurisdiction and its applicable laws. It is important to understand these compulsory benefits as they may impact the benefits received by the Insured Employee.
<EOS>
According to the details outlined in Lincoln Cert 5439094.pdf on pages 21 (rows 1, 2, 1, 2), any disability income benefits that the Insured Employee may be entitled to from other group insurance plans, excluding credit or mortgage insurance, and any no-fault auto plan, will impact this policy. Such external benefits could potentially reduce or eliminate the payments received under this policy. It is essential to consider these factors when determining the total disability income benefits.
<EOS>
This policy from Lincoln Cert 5439094 clarifies that an Employee's Disability income benefits eligibility does not include salary continuation or sick leave benefits derived from their employer's plans. Notably, this exclusion doesn't apply to vacation pay, severance pay, or remuneration for work completed during a Disability. It is essential to note that these exemptions do not pertain to pay earned due to tasks performed while disabled.
<EOS>
Under the Employer's Retirement Plan outlined in Lincoln Cert 5439094.pdf (page 21, row 2), any Disability or Retirement Benefits received by the Insured Employee are subject to certain conditions. For instance, if the employee becomes disabled before normal retirement age, benefits will be reduced by 5% for each year under age 65, up to 30%. However, if disability occurs after reaching the normal retirement age, no reduction applies. Upon termination of employment, a lump-sum payment will be made representing accumulated contributions plus interest, but service retiring at or after normal retirement age is excluded from this provision. The normal retirement age is 65 for employees who were initially hired before January 1, 2004, and 67 for those hired afterward. If the employee dies before receiving Retirement Benefits, these will be paid to a designated beneficiary.
<EOS>
According to Lincoln Cert 5439094.pdf on page 21, under Social Security and other Government Retirement Plans, any benefits derived from these plans will be offset should the following conditions apply:

1. If a retirement income stream commences before the age of 65, partial or full offset may occur due to receiving government-funded retirement benefits. The percentage of offset depends on the type of benefit received and the age at which it begins.

2. Upon reaching 65 years old, a reduction in the offset may take place for certain benefits, as specified in the policy document.

3. It is essential to note that the exact amount of offset and any potential reductions after age 65 are determined based on individual circumstances and the specifics outlined within the policy.

4. The offset does not apply if you have not elected to receive your Social Security or government retirement benefits at the time the life insurance benefit is paid out.

5. Please consult the policy document for more detailed information regarding eligibility, exceptions, and other relevant considerations.
<EOS>
According to Lincoln Cert 5439094.pdf, on pages 21 and specifically rows 3 and 1, the Insured Employee's child is eligible for disability benefits under certain circumstances due to the employee's own disability. The benefits are provided as a percentage of the employee's salary, with specific details about the exact percentage not specified in this section. The eligibility period for these disability benefits is not explicitly stated but appears to be contingent on the employee's status. Spouses may also be eligible for certain benefits related to the Insured Employee's disability, although the specifics of their eligibility are not detailed within this section of the document.
<EOS>
This insurance policy (Lincoln Cert 5439094.pdf) on page 21 reveals that unreduced retirement benefits may be extended to a surviving spouse or child of the Insured Employee. Eligibility for these benefits stems from the Insured Employee's own eligibility for unreduced retirement benefits, as outlined in rows [3, 4, 1]. Importantly, should the Insured Employee pass away before retirement, the surviving spouse may receive up to 50% of the original benefit amount. Additionally, a child may be eligible to receive benefits if they are under 26 years old and unmarried at the time of the Insured Employee's death.
<EOS>
According to Lincoln Cert 5439094.pdf, reduced retirement benefits received by the Insured Employee, or their spouse, due to Government Retirement Plans (e.g., federal Social Security Act, Jones Act, Railroad Retirement Act, Canada Pension Plan, Quebec Pension Plan, or similar plans from other political units), are subject to consideration. These plans encompass disability and retirement benefits under federal laws, as well as international counterparts like the Canada Pension Plan or Quebec Pension Plan, and any other comparable plans globally. The percentage of such received benefits may impact retirement benefits under this policy.
<EOS>
According to Lincoln Cert 5439094.pdf on page [22], "Earnings" encompasses the pay a policyholder receives from any occupation and is reported for federal income tax purposes. This includes, but isn't limited to: salaried or hourly Employee's gross earnings (as shown on Form W-2), such as wages, tips, commissions, bonuses, overtime pay, and pre-tax contributions to Section 125 Plan, flexible spending account, or qualified deferred compensation plan. For self-employed individuals, it also involves the net profit from a proprietorship (Form 1040, Schedule C), professional corporation shareholder's net profit (also Form 1040, Schedule C), partnership earnings (Schedule K-1), and Subchapter S Corporation shareholder's net earnings from trade or business activities (Schedule K-1).
<EOS>
According to the Lincoln Cert 5439094.pdf, several types of income will not be considered Other Income Benefits or used for offset in determining Disability benefits. These exclude:

1. Cost-of-living increases in any Other Income Benefit (except Earnings) after the initial offset during a period of Disability.
2. Hospital, medical, or surgical expense reimbursements, attorney fees, and other costs associated with claiming Other Income Benefits.
3. Group credit, mortgage disability insurance benefits and early retirement benefits not elected/received under federal Social Security Act or Government Retirement Plan.
4. Amounts from the Employer's Retirement Plan representing employee contributions or received upon termination without disability or retirement; also applicable to 401(k), profit-sharing, thrift plans, IRAs, TSAs, stock ownership plans, and non-qualified deferred compensation plans.
5. Vacation pay, holiday pay, severance pay, as well as disability income benefits from individual policies, association group plans, franchise plans, auto liability insurance policies (except no fault auto insurance).
<EOS>
According to Lincoln Cert 5439094.pdf, any Income Benefits potentially impacting Policy benefits are subject to specific rules. If the Insured Employee receives Other Income that may offset the Policy benefits, such income will be reduced by a percentage equivalent to the net amount of Other Income received during the month prior to the disability commencement date. This reduction applies until the policy benefit is reinstated or reaches 80% of the pre-disability earnings, whichever occurs first. The offset does not apply if Other Income is received from workers' compensation or social security disability benefits, nor if the combined total of all Other Income plus Policy benefits falls below 90% of the pre-disability earnings. Additionally, the Insurance Company may require evidence of continued entitlement to Other Income for ongoing offsets.
<EOS>
In accordance with Lincoln Cert 5439094.pdf (page 22, rows 2-3, 1, 2, 1, 2, 1, 2, 3, 1, 2, 3, 1, 2, 1, 2), an Insured Employee entitled to Other Income Benefits is mandated to apply promptly and pursue avenues such as reconsideration or hearings before Administrative Law Judges when benefits are denied (except if the Company waives this in writing). The Employer must cooperate in filing Workers' Compensation or similar claims. Failing to pursue Other Income Benefits on time may result in the denial, suspension, or reduction of Monthly Benefits by an estimated amount.
<EOS>
According to the Lincoln Cert 5439094.pdf on page 23, during a pending Social Security or other Government Retirement Plan claim, the Insured Employee must opt for one of two choices in writing. The lack of an election results in a reduction of Monthly Benefits following Option 1. There are two options available:

  1. If elected, the insured employee can defer the offset until their Social Security benefits start or reach age 70, whichever comes first.
  2. Alternatively, they may elect to receive a reduced monthly benefit with an immediate payment that will be adjusted based on future Social Security benefits received. This adjustment follows a reduction of 60% in the first year and 15% annually for each subsequent year until age 70 or the start of their Social Security benefits, whichever is earlier.

This section highlights the crucial requirement for the Insured Employee to make a written election regarding how to handle potential offsets during a pending government retirement plan claim. The electable options offer different timelines for deferring the offset and various methods for adjusting future monthly benefits based on Social Security payments received.
<EOS>
Under this policy (Lincoln Cert 5439094.pdfs' row 3-8, page 23), the Insured Employee may receive reduced Monthly Benefits due to anticipated Social Security or other Government Retirement Plan benefits. The Company will make necessary adjustments and repay any underpayment in a lump sum upon receiving evidence of either: a) the actual awarded amount; or b) the denied claim, followed by completion of any required appeals.
<EOS>
According to Lincoln Cert 5439094.pdf on pages 23 and relevant rows 3, 1, 2, 3, 4, 5, 1, and 2, the Insured Employee is entitled to unreduced Monthly Benefits during claim processing. However, any overpayment received while also getting Social Security or other Government Retirement Plan benefits must be refunded promptly in a lump sum. If the employee fails to return an overpayment promptly, the Company reserves the right to either reduce or cease future payments and waive the Minimum Monthly Benefit until repayment is made.
<EOS>
According to Lincoln Cert 5439094.pdf, lump sum payments for Other Income Benefits are pro rated over their duration if specified. If no time period is provided, the company will apply an estimated monthly offset until the full amount is offset. In the absence of an estimated offset, the lump sum will be pro rated monthly over a reasonable period, not exceeding 60 months or the Maximum Benefit Period, whichever occurs first. This pro rating ensures that the policyholder receives a portion of their benefit each month until the lump sum is fully utilized.
<EOS>
Under the Cost-of-Living Freeze provision of Lincoln Cert 5439094.pdf, any Other Income Benefit (excluding Earnings) after the initial deduction will have its amount frozen. The Monthly Benefit will not be subjected to further reductions due to cost-of-living increases payable under these specified Other Income Benefits. This means that regardless of inflation or cost-of-living adjustments in these other benefits, the frozen benefit remains unchanged.
<EOS>
This Lincoln Cert 5439094.pdf section details Recurrent Disability benefits. In case of a Total Disability due to the same or related condition that caused a previous disability, occurring within 24 consecutive months after the end of the initial disability period, you will be eligible for additional benefits up to 24 months, starting from the date of the recurrence. The benefits paid during this period will not count toward the 24-month maximum benefit period. If the recurrent Total Disability lasts beyond the initial 24-month period and continues to the end of the benefit period (up to age 65 or the Normal Retirement Age), the benefit amount will be reduced by 10% for each year or fraction thereof after the first year of recurrence. This reduction does not apply if the second disability is due to a condition other than the one that caused the previous disability.
<EOS>
According to Lincoln Cert 5439094.pdf on pages 24 rows 2, 3, and 1, a Recurrent Disability refers to one caused by an earlier Injury or Sickness for which Monthly Benefits were paid. The policy outlines the treatment of such a recurrence as follows:

1. If the Recurrent Disability starts within 24 months of the end date of the initial Disability, it is considered to be continuous with the original Disability and benefits will resume from the day following the end date of the initial Disability.

2. If the Recurrent Disability starts more than 24 months after the end date of the initial Disability, it is a new Disability and will be evaluated based on the requirements outlined elsewhere in the policy. In this case, benefits may only be payable if the Recurrent Disability meets the definition of Total Disability at that time.

3. If the Recurrent Disability occurs within 90 days after returning to work following the initial Disability, it is also considered continuous with the original Disability and benefits will resume from the day following the last day of the Work Incentive Benefit Period or the date of return to work, whichever is later.

4. For both scenarios, any waiting period already served during the initial Disability will not be re-applied when the Recurrent Disability occurs.

5. It's crucial to note that this policy does not cover pre-existing conditions or disabilities that are not related to an Injury or Sickness for which Monthly Benefits were paid previously.
<EOS>
According to the Lincoln Cert 5439094.pdf on pages 24 and relevant rows 3-1, a Recurrent Disability is considered a new Disability. For benefits to resume, the Insured Employee must return to their Own Occupation with the Employer for at least the Minimum Number of Hours Per Week as shown in the Schedule of Benefits, and maintain this employment for six consecutive months following the cessation of previous Disability benefits. A new Elimination Period must be completed before payments resume, followed by a new Maximum Benefit Period.
<EOS>
This Lincoln Cert 5439094.pdf section on Prior Disability (pages [24], rows [3, 4, 5, 6, 7, 1, 2, 3, 1, 2, 3, 4, 1, 1, 2, 3, 4, 5, 6, 1, 2, 1, 2, 3, 4, 1, 2, 1, 2, 1, 2, 3, 4, 5, 1, 2, 1, 2, 1, 2, 3, 1, 2]) details the rules governing Recurrent Disability. A Recurrent Disability occurs after an Insured Employee returns to their Own Occupation with the employer for less than six months following the end of prior Disability benefits. The same Maximum Benefit Period applies, and the Predisability Income used in determining the prior Disability benefit is retained.

   If subsequent events occur within six months after prior Disability benefits end under the Policy, a Recurrent Disability is treated as a prior Disability: if a job isn't available for the Insured Employee to return to work with the employer; coverage under the Policy terminates; the former employee returns to their Own Occupation with a new employer; no benefits are payable under any other group long-term disability plan, and a Recurrent Disability begins. The same Maximum Benefit Period, Exclusions, and Limitations apply.

   To qualify for a Monthly Benefit, the Insured Employee or former Employee must earn less than the specified percentage of Predisability Income in the Partial Disability Monthly Benefit section. Monthly Benefit payments are subject to all other Policy terms that applied to the prior Disability. This provision ceases to apply if an Insured Employee or former Employee becomes eligible for coverage under any other group long-term disability plan.
<EOS>
This section from Lincoln Cert 5439094.pdf (page 25, row 1) outlines the Progressive Income Benefit. The policy provides a monthly income supplement if the insured's earned income decreases by 20% or more due to an injury or sickness. This benefit is payable for up to 60 months, with the first payment starting after 30 days of disability and ending when the insured's earnings exceed the pre-disability level by 20%. The supplement percentage increases gradually from 50% up to a maximum of 100%, depending on the percentage drop in income. For instance, if the insured's income decreases by 50%, they would receive a monthly benefit equal to 50% of the difference between their pre-disability and post-disability earnings. However, this benefit is subject to a maximum monthly amount as specified in the policy schedule.
<EOS>
According to Lincoln Cert 5439094.pdf, under the ADL Benefit outlined on pages 26 rows 1 and 2, the policy provides an Accelerated Death Benefit (ADB) rider that allows access to a portion of the death benefit if the insured is diagnosed as terminally ill with a life expectancy of 24 months or less. The ADB amount equates to 50% of the total death benefit, and it may be requested in increments starting from 12 months after the qualifying diagnosis. This rider requires medical evidence for eligibility determination and is subject to a waiting period of six months following the date of policy issuance before it becomes effective. Additionally, any ADB payments received will reduce the death benefit payable upon the insured's death.
<EOS>
According to Lincoln Cert 5439094.pdf, an Insured Employee's coverage for the Progressive Income Benefit under the Policy begins on the specified effective date. This applies to both the initial coverage of Long Term Disability Benefits and any subsequent addition of this provision through Policy amendments. The exact effective date will vary depending on the individual's employment status and qualifications as outlined in the policy terms.
<EOS>
According to the terms outlined in Lincoln Cert 5439094.pdf on pages 25, rows 2, 3, 1, 1, 2, 3, and 1, 2, an insured employee will only be eligible for this benefit if they are either able to safely and independently perform all Activities of Daily Living or no longer suffering from a Cognitive Impairment. The effective date is deferred if the employee is unable to carry out these tasks without assistance on that date. Once they can fulfill these requirements, their coverage will commence immediately.
<EOS>
According to Lincoln Cert 5439094.pdf, once the Elimination Period outlined in the Schedule of Insurance is over, the insurance company will pay an extra monthly benefit to an Insured Employee if they meet two conditions: firstly, they are already receiving Total Disability or Partial Disability Monthly Benefits under the policy; secondly, they provide evidence of having suffered a Loss of Activities of Daily Living or a Cognitive Impairment (as defined in the policy). The employee is responsible for submitting this proof at their own expense.
<EOS>
According to the Lincoln Cert 5439094.pdf at pages 25 and relevant row numbers, the Progressive Income Benefit is calculated as 10% of the Insured Employee's Basic Monthly Earnings but will not exceed the Maximum Monthly Benefit for Long Term Disability Benefits or $5,000 per month (whichever is less). This maximum benefit amount is outlined in the policy's Schedule of Insurance. The Progressive Income Benefit remains unaffected by any Other Income Benefits and earnings from any form of employment.
<EOS>
According to the Lincoln Cert 5439094.pdf, the Progressive Income Benefit terminates on the earliest occurrence of four scenarios: (1) the Insured Employee recovers from Loss of Activities of Daily Living or Cognitive Impairment as defined; (2) the Insured Employee is no longer eligible for Total Disability or Partial Disability Monthly Benefits under the policy; (3) the Maximum Benefit Period concludes, or (4) the Insured Employee passes away. It is noteworthy that a Family Income Benefit, if included in the policy, will not augment the amount paid to an Eligible Surviving Spouse or Children due to the Insured Employee's receipt of this Progressive Income Benefit.
<EOS>
According to Lincoln Cert 5439094.pdf, a Loss of Activities of Daily Living refers to an Insured Employee's inability, due to injury or sickness, to perform safely and independently two or more activities like bathing, dressing, toileting, transferring (from bed or chair), continence, or feeding without significant assistance from another person. These six daily living activities are specified within the document. This loss must affect all or most of the activity for the claim to be valid. The definition is found on page 25, rows [2, 3, 1, 1].
<EOS>
According to Lincoln Cert 5439094.pdf, bathing includes personal hygiene practices such as washing in a tub, shower, or via sponge bath, with or without equipment, on row 1 of page 35. This policy section does not specify any limitations, exclusions, or restrictions for these activities related to the insurance coverage provided. It's essential to note that this policy may have additional terms and conditions regarding personal hygiene and health care that are not covered in this concise summary.
<EOS>
According to Lincoln Cert 5439094.pdf on pages 35, rows 3 and 1, the policy covers the use of braces or artificial limbs typically worn as part of daily activities, including dressing, undressing, fastening, or unfastening these aids. This coverage applies to medically necessary situations only.
<EOS>
According to Lincoln Cert 5439094.pdf, on page 35 row 1, the policy covers assistance for toileting activities including getting to, from, and on/off the toilet, as well as related personal hygiene tasks. This service is subject to certain conditions and requirements. Specifically, the policyholder can receive up to 100% of the daily benefit for this service, but only if they require substantial assistance with these activities due to a qualifying illness or injury. The daily benefit amount will be based on the policy's daily rate at the time the service is required. This provision applies from the effective date of the policy throughout its duration.
<EOS>
According to Lincoln Cert 5439094.pdf on page 35, rows 3, 4, and 1, the policy addresses mobility-related equipment including canes, walkers, crutches, grab bars, and other support or mechanical/motorized devices. The policy provides coverage for assistance in moving in and out of bed, chairs, or wheelchairs with or without such equipment. A critical requirement is that the use of this equipment must be recommended by a healthcare professional as medically necessary for the insured's condition. Any changes to the equipment, such as upgrades or replacements, must also be approved by the policy provider.
<EOS>
This Lincoln Cert 5439094.pdf section on row 3, page 35 outlines the continence requirement for policyholders. If a policyholder is not continent (i.e., unable to control bladder and bowel function), related personal hygiene, including catheter or colostomy bag care, falls under this criterion. It's crucial that policyholders remain continent or manage their conditions appropriately to maintain eligibility for coverage.
<EOS>
According to Lincoln Cert 5439094.pdf, obtaining nourishment is defined as consuming food prepared and made available through means such as eating at a table, tray, or container (e.g., bowl or cup), using special equipment like feeding tubes or intravenous tubes. This policy applies to any situation where an individual receives sustenance in this manner.
<EOS>
According to Lincoln Cert 5439094.pdf on pages 26 (rows 1-4, 1-2, 3, and 1-2), "Cognitive Impairment" denotes a permanent decline in cognitive or intellectual ability due to injury or sickness. This deterioration necessitates another person's continuous assistance or verbal guidance to prevent harm to self or others. The impairment must be confirmed by a physician using clinical evidence and standardized tests assessing short/long-term memory, orientation, and abstract reasoning. Causes can range from moderate to severe head trauma, stroke, Alzheimer's disease, or other irreversible dementias.
<EOS>
This Lincoln Cert 5439094.pdf section on "Mental Sickness" (row numbers [2, 3, 1, 2, 1, 2, 1, 2, 1, 2, 1, 2, 3] page 26) encompasses emotional, behavioral, or psychological disorders regardless of their cause. It specifically includes conditions like schizophrenia or schizoaffective disorder, bipolar affective disorder, manic depression, psychosis, obsessive-compulsive, depressive, panic, or anxiety disorders. These conditions are usually managed by psychiatrists, clinical psychologists, or other mental health care providers through methods such as psychotherapy and psychotropic drugs. However, it excludes irreversible dementia stemming from stroke, trauma, viral infection, Alzheimer's disease, or similar conditions not typically treated with psychotherapy, psychotropic drugs, or comparable treatments.
<EOS>
In accordance with Lincoln Cert 5439094.pdf, a pre-existing condition is defined as any illness or injury for which the insured received treatment within three months prior to their effective date for this benefit. This provision stipulates that any medical issue treated before the insurance start date may be considered a pre-existing condition and could potentially affect coverage under certain circumstances.
<EOS>
According to Lincoln Cert 5439094.pdf, the 'Treatment' section on pages 26, rows 1-2 details that the policy includes physician consultations, necessary care and services, diagnostic tests, as well as the prescription, refill, or administration of prescribed medications. Essentially, any medical treatment required falls under this provision, with specific focus on diagnostic measures and pharmaceutical interventions. Importantly, these treatments must comply with the policy's terms, conditions, and limitations.
<EOS>
According to Lincoln Cert 5439094.pdf, any disability benefits will not be payable during a period of disability that commences before the insured's effective date of coverage under this policy, as detailed on row 2 of page 26. Therefore, it is crucial for the insured to establish their effective date of coverage prior to experiencing a disability in order to receive benefits from this insurance policy.
<EOS>
According to Lincoln Cert 5439094.pdf on pages 26, rows 2, 1, 2, 3, 1, 2, 3, benefits for a Loss of Activities of Daily Living or Cognitive impairment will not be paid if the impairment is caused or worsened by, or results from, a pre-existing condition during the first 12 months after the Insured Employee's effective date under this benefit. A pre-existing condition, as defined within this document, is any injury, illness, or medical condition for which: 1) medical care, treatment, consultation, or advice was received during the 90 days before the effective date of coverage; or 2) symptoms existed during this same period that would have caused a reasonable person to seek medical care.
<EOS>
According to Lincoln Cert 5439094.pdf (pages 26, rows 2-4), the policy does not cover disability claims resulting from mental illnesses, alcoholism, or voluntary use of controlled substances unless prescribed by a physician. Controlled substances are defined as those outlined in Title II of the Comprehensive Drug Abuse Prevention and Control Act of 1970, with any subsequent amendments. This policy provision applies to disabilities caused or contributed to by these conditions.
<EOS>
According to Lincoln Cert 5439094.pdf, premium and other policy provisions on row 2 of page 26 dictate that payments, adjustments, or settlements are subject to the definitions provided within the policy. Any benefits may be reduced or forfeited if the policyholder fails to meet the specified requirements or deadlines. Additionally, any partial or total cancellation of this coverage due to non-payment will result in a loss of any accumulated cash values and dividends. Furthermore, changes to the insured's personal information must be reported promptly to maintain validity, while waiver of premium riders may apply under certain circumstances.
<EOS>
In the coverage outlined by Lincoln Cert 5439094.pdf on pages 27 (rows 1, 1, 1, 2), certain exclusions are detailed under Pre-Existing Condition GL3002 as follows: claims for any medical conditions existing within 3/12 prior to the policy's effective date of January 1, 2021 are not covered. This exclusion applies ten (10) months following the policy inception and lasts up to twenty-five (25) months after the start of the policy period.
<EOS>
According to Lincoln Cert 5439094.pdf, the policy does not apply during any period of Total or Partial Disability for reasons such as war (declared or undeclared), self-inflicted injuries, active participation in a riot, committing or attempting a felony, assault, battery, while incarcerated for a felony, not receiving Regular Care from a Physician, and if the Insured Employee has resided outside the United States or Canada for more than 12 consecutive benefit months, excluding employment with the Employer.
<EOS>
According to the Lincoln Cert 5439094.pdf, during the first 12 months following an Insured Employee's Effective Date, any Total or Partial Disability that is either caused by, or connected to, a Pre-Existing Condition will not be covered. A Pre-Existing Condition refers to any Sickness or Injury for which the Insured Employee sought treatment within three months prior to their Effective Date. Treatment includes consultations, care, services, diagnostic measures, and the prescription, refill of prescription, or consumption of prescribed drugs or medicines provided by a Physician.
<EOS>
This information from Lincoln Cert 5439094.pdf on pages 29 rows 1, 1, 2 outlines the Specified Limit. The limit is GL3002-CERT-14, effective from January 1, 2021. This limit has a coverage amount of 98 and a percentage of 27 for claims related to accidental bodily injury or sickness arising out of the use of covered auto during the policy period. The maximum amount payable under this limit is $9800 (98 * 104, being the sum insured). This coverage does not apply if the insured has knowingly violated any motor vehicle traffic law or regulation in the place where the loss occurred.
<EOS>
According to Lincoln Cert 5439094.pdf, Disability Monthly Benefits for an Insured Employee due to Specified Injuries or Sicknesses (including Mental Sickness or Substance Abuse) will be payable subject to the policy terms but are limited to 24 months per disability period, unless the employee is hospital-confined. Notably, benefits may extend beyond 24 months if hospitalized. The document defines 'Specified Injuries or Sicknesses'.
<EOS>
According to Lincoln Cert 5439094.pdf, if an Insured Employee is hospitalized by the end of the 24th month following policy benefits payment for a Specified Injury or Sickness, benefits will continue until discharge from that facility. However, these Monthly Benefits cannot exceed the Maximum Benefit Period shown in the Schedule of Insurance.
<EOS>
According to Lincoln Cert 5439094.pdf, a "Hospital" is defined as a licensed, approved, or certified general hospital that treats resident inpatients, has a registered nurse on duty, and possesses a lab, x-ray facility, and a location for major surgery. Additionally, it includes mental hospitals treating mental sicknesses, treatment centers for substance abuse, skilled nursing care facilities or units under Medicare, and convalescent care facilities providing nursing care.
<EOS>
According to Lincoln Cert 5439094.pdf, a 'Mental Hospital' is defined as a state-licensed or approved facility, equipped for inpatient treatment of mental diseases or disorders, with a resident psychiatrist on duty or call at all times. The psychiatrist's role ensures continuous availability for patient care within this health care setting.
<EOS>
According to Lincoln Cert 5439094.pdf, 'Mental Sickness' refers to any emotional, behavioral, or psychological disorder, disturbance, dysfunction, or syndrome, regardless of its cause, including schizophrenia or schizoaffective disorder, bipolar affective disorder, manic depression, psychosis, obsessive-compulsive, depressive, panic, or anxiety disorders. Treatment is typically provided by psychiatrists, clinical psychologists, or other mental health care providers and often includes psychotherapy, psychotropic drugs, or similar methods. This does not encompass irreversible dementia caused by stroke, trauma, viral infection, Alzheimer's disease, or other conditions not usually managed with such treatments.
<EOS>
According to the Lincoln Cert 5439094.pdf on pages 29 rows [1, 2, 1, 2, 1, 2], a Treatment Center is defined as a state-licensed, certified or approved healthcare facility that offers an inpatient substance abuse treatment program and provides such care based on a physician-approved and supervised plan.
<EOS>
This Lincoln Cert 5439094.pdf section on Voluntary Vocational Rehabilitation Benefit (GL3002-CERT-14.3) states that this benefit provides coverage starting from January 1, 2021. The policy allows for up to 98 weeks of vocational rehabilitation services, with a weekly maximum benefit amount of $28. These services aim to help the insured return to suitable gainful employment after an injury or sickness that has prevented them from doing so. The policy requires pre-approval for these services and may cover necessary evaluations, training, education, or job placement assistance. Any changes in the plan of care require additional approval.
<EOS>
According to the Lincoln Cert 5439094.pdf at pages 30, rows 2, 1, 2, 1, 2, 1, 2, 3, and 1, an insured employee who is disabled and receiving policy benefits may be eligible for a Vocational Rehabilitation Benefit. This benefit encompasses vocational evaluation, counseling, training, job placement, job modification or special equipment, and other services deemed necessary by the company to aid the employee's return to work. The company holds the authority to determine an individual's eligibility and the amount of any benefit payable.
<EOS>
According to the Lincoln Cert 5439094.pdf, an eligible employee must have a disability that hinders their regular occupation performance, and afterwards lack skills, training, or experience for any other gainful occupation. The individual must possess the required physical and mental abilities to finish a Program, and should be expected to return to work post-Program completion based on motivation level and job market demand in the proposed occupation. The employee's degree of motivation and labor force demand are factors taken into consideration. Additionally, the Company will only grant this benefit if they find that the cost of the proposed services is less than their anticipated claim liability.
<EOS>
According to Lincoln Cert 5439094.pdf on pages 30 rows 2, 1, 2, and 3, the Vocational Rehabilitation Benefit's payment will not exceed the company's anticipated claims liability. This benefit is not applicable for services covered under the insured employee's health care plan or any other vocational rehabilitation program. The company has the option to pay the provider of the services directly. It is important to note that this benefit is subject to the company's claim liabilities and does not cover services already included in the employee's health care or other vocational rehabilitation programs.
<EOS>
In accordance with Lincoln Cert 5439094.pdf on pages 30 rows 2, 1, 2, and 3, the Policy outlines vocational rehabilitation provisions. Either the Company, the Insured Employee, or their Physician can propose this rehabilitation. Upon approval by the Company, the Policy's Disability definition is waived during the rehabilitation period. However, after the Program concludes, the Company will reassess and determine any Long Term Disability benefits' amount and duration. The Program's terms dictate that the Policy definition of Disability resumes post-rehabilitation.
<EOS>
Under the Vocational Rehabilitation Benefit stated in Lincoln Cert 5439094.pdf, any Insured Employee who receives this benefit and fails to complete the program without Good Cause will not be covered for Disability during that period. The policy does not specify what constitutes 'Good Cause' or how one can demonstrate it. This rule is applicable on page numbers [30] rows [2].
<EOS>
This information from Lincoln Cert 5439094.pdf pertains to the term "Good Cause" within the policy context. It refers to an Insured Employee's documented physical or mental impairments that prevent participation in or completion of a Program, their involvement in a medical program hindering such participation, or their active engagement in a different vocational rehabilitation program. This alternative program must either conflict with the Company-developed Program or be expected to facilitate the Employee's return to work. The Employee's good-faith participation in this conflicting or beneficial program qualifies as "Good Cause" under this provision.
<EOS>
This information from Lincoln Cert 5439094.pdf outlines a vocational rehabilitation program (Program). The Program is jointly developed with inputs from the insured employee, their physician, and any relevant employer. Its objectives, responsibilities of each party, as well as the timelines, costs, and dates for rehabilitation services are all clearly stated within it. This structured plan aims to aid the insured employee in recovering and returning to work.
<EOS>
