According to Lincoln Policy 4939955, page 1 row 1, this policy provides Long-Term Disability insurance coverage under GL3001-LTD-1 10. The policy covers the insured for up to ten years following the end of the benefit period specified in the Group Long-Term Disability Insurance Contract. If the insured is under age 65, benefits continue until the earlier of age 65 or the date the insured returns to work on a regular full-time basis. The policy defines disability as an inability to perform the material and substantial duties of any occupation for which the insured is qualified by education, training, or experience. Monthly benefits are payable at 60% of the monthly earnings at the time of disability, subject to a maximum benefit of $15,000 per month. The policy has an elimination period of either 90 or 180 days, as chosen by the insured during enrollment.
<EOS>
This information from Lincoln Policy 4939955.pdf outlines a group insurance policy issued to Windrose Health Network, Inc., effective June 1, 2012, with policy number 000010160531. The monthly premium is 0.36% of the total covered payroll, guaranteed until June 1, 2014, with possible changes to the terms. Policy anniversaries commence on June 1, 2014. The first premium is due on the effective date, and subsequent payments are due on the same day of each month thereafter. Delivered in Indiana, the policy is subject to its state laws, and The Lincoln National Life Insurance Company executed it at their Omaha, Nebraska Group Insurance Service Office on June 21, 2012.
<EOS>
Under the Group Long-Term Disability Insurance policy outlined in Lincoln Policy 4939955.pdf, a covered employee becomes eligible for benefits starting six months following the onset of a disability, provided they've completed the required nine-month waiting period. The benefit amount is determined as a percentage of the employee's pre-disability earnings, with the maximum monthly payout being $10,000. Disability is defined as the inability to perform the material and substantial duties of the employee's own occupation for more than 90 consecutive days or more than 180 days in any 365-day period. This policy will continue until normal retirement age or until the employee returns to work, whichever occurs first. After normal retirement age, benefits can be extended if the disability began before retirement and continues beyond that point.
<EOS>
This policy from Lincoln Policy 4939955 outlines various provisions over pages [2, 3]. Definitions are delineated on page 4. General guidelines are provided from page 10 onwards. Claim procedures and eligibility requirements are explained on pages 12 and 16 respectively. Effective dates and individual termination rules are given on the same page. Policy termination is detailed on page 19, followed by premiums and rates information on page 20. The Total Disability Monthly Benefit is defined on page 21, with Progressive Income Benefit, Partial Disability Monthly Benefit, and Other Income Benefits outlined from pages 22-26. Recurrent Disability, Exclusions, Specified Injuries or Sicknesses Limitation, Voluntary Vocational Rehabilitation Benefit Provision, Reasonable Accommodation Benefit, Prior Insurance Credit Upon Transfer of Insurance Carriers, Family Income Benefit, Family Care Expense Benefit, and Notice are addressed from pages 29-38. The policy was updated on 06/01/12 by Windrose Health Network, Inc. with the reference number 000010160531.
<EOS>
According to Lincoln Policy 4939955, page 3 row 7, the Eligible Class is classified as Class 1. This includes CEO, COO, CFO, providers, and all full-time salaried employees within this category. To be considered for benefits under this policy, these individuals must meet certain requirements and maintain their positions with the company throughout the policy term. Specific details about these criteria can be found in subsequent sections of the document. The policy extends its coverage to eligible employees regardless of their employment status at the time of benefit disbursement.
<EOS>
According to Lincoln Policy 4939955, page 4, row 14, the benefit percentage for this policy is 60%. This indicates that, in the event of a claim, the insurance company will pay 60% of the covered amount. The remaining 40% would be the policyholder's responsibility. The percentage is calculated based on the total cost of the covered service or item. This percentage applies only to this specific policy and may vary with other policies or providers.
<EOS>
This policy, as outlined in Lincoln Policy 4939955.PDF (page 4, row 17), states a maximum monthly benefit of $5,000. The payment is subject to the policy's terms and conditions, including eligibility criteria and applicable laws. This amount is intended to provide financial support during specified circumstances, such as death or disability, as detailed in the comprehensive policy document. The actual payout may vary based on individual case analysis and the specific provisions of the policy.
<EOS>
In the specified section of Lincoln Policy 4939955 on page 4 (rows 20, 21, 23, 24), it is detailed that the Minimum Monthly Benefit for Long-Term Disability insurance is either $100 or 10% of the Insured Employee's monthly income, whichever amount is greater. However, it's important to note that Long-Term Disability Benefits for pre-existing conditions are subject to the Pre-Existing Condition Exclusion as outlined in the policy document.
<EOS>
According to Lincoln Policy 4939955, page 4 row 27, a 180-day Elimination Period is applicable for Disability benefits stemming from the same or related Sickness or Injury. This period must be accumulated within a 360-day period to become eligible for benefits.
<EOS>
According to Lincoln Policy 4939955.pdf, the maximum benefit period for sickness, injury, or pre-existing conditions is determined by the later of the Employee's Social Security Normal Retirement Age or the specified duration below. If disability occurs before age 60, benefits last up until ages 60, 61, 62, 63, 64, 65, 66, 67, 68, 69, and beyond. The policy does not specify a benefit period beyond age 69. Benefits are subject to a gradual reduction if the Employee returns to work before reaching their Social Security Normal Retirement Age.
<EOS>
Under the Maximum Benefit Period section of Lincoln Policy 4939955.pdf, benefits are capped at different durations depending on the age when they commence. For instance, if initiated before age 65, the benefit period lasts up to 60 months; however, it decreases to 48 months if started between ages 65 and 70, 42 months for ages 71-75, 36 months for ages 76-80, 30 months for ages 81-85, 24 months for ages 86-90, 21 months for ages 91-95, and 18 months for ages 96-100. Each age group has a specific period for receiving benefits, ranging from 12 to 60 months. This cap ensures that benefits are not payable indefinitely after the policyholder reaches certain advanced ages.
<EOS>
According to Lincoln Policy 4939955, during the Own Occupation Period, benefits will be paid if an insured employee is unable to perform their specific occupation due to a sickness or injury. This period begins after the Elimination Period ends and lasts until the Maximum Benefit Period for Insured Employees concludes. The policy does not specify a particular duration for this period, but it is subject to the overall Maximum Benefit Period limitations.
<EOS>
According to Lincoln Policy 4939955.pdf, for employees hired before the policy issue date, there is no waiting period. However, for those employed after the issue date, a 30-day continuous active work requirement applies. This means that if you start working after the policy's effective date, you will need to be actively engaged in your role for 30 consecutive days before any coverage kicks in. These details can be found on page [4] of the document, specifically rows [18, 19, 20, 21].
<EOS>
According to Lincoln Policy 4939955.pdf, page 4 rows 24 and 25, the insured employees under Long-Term Disability coverage are not required to contribute financially towards their coverage. The policy specifies that premiums for this benefit are fully covered by the employer, with no employee contributions necessary. This arrangement remains effective until the stated term of the policy ends or any amendments are made.
<EOS>
According to Lincoln Policy 4939955, Eligible Class is defined as Class 2 on page 4, row 7. This classification pertains to All Other Full-Time Employees. To be eligible for coverage under this class, employees must meet specific requirements and remain employed full-time at the policy's effective date (the starting point of the policy period). Additionally, they must continue to be classified as Class 2 throughout the policy term. Premium contributions may vary based on various factors such as age, gender, tobacco usage, and occupation classification. It is essential to adhere to these terms to ensure continued coverage under this policy.
<EOS>
According to Lincoln Policy 4939955.pdf, the OWN Occupation Period refers to a duration starting at the end of the Elimination Period and lasting for 24 months, if the insured is an employee. This period pertains to individuals who are unable to perform the material and substantial duties of their specific occupation due to a disabling injury or sickness, not just any job they could perform. The policy benefits are payable during this defined period.
<EOS>
According to Lincoln Policy 4939955.pdf, section DEFINITIONS at pages 5, rows 1 and 5, Long-Term Disability (LTD) benefits under GL3001 is defined as a monthly payment of 60% of the pre-disability earnings, up to a maximum of $7,500 per month, in the event an insured individual becomes disabled due to sickness or injury and cannot perform their own occupation for more than 24 consecutive months. This definition applies when an individual's disability begins on or after June 1, 2012. The policy has a 90-day elimination period during which benefits are not payable. Additionally, if the insured returns to work and subsequently becomes disabled again within six months, another 90-day elimination period applies.
<EOS>
According to Lincoln Policy 4939955, "Actively at Work" refers to an Employee's full-time execution of their main duties, whether at the usual workplace or any location required by the employer for travel. An employee is considered Actively at Work on non-workdays such as weekends, holidays (not scheduled workdays), paid vacations, or unscheduled days off. Additionally, an employee remains Actively at Work during a non-medical leave of absence of 12 weeks or less, including Military Leave, Family or Medical Leave not due to the employee's health condition.
<EOS>
According to Lincoln Policy 4939955.pdf on pages 5, the term "Basic Monthly Earnings" or "Predisability Income" refers to an employee's pre-tax base salary or hourly wage at the time of disability onset, specifically the last day worked prior to that date. It excludes commissions, bonuses, overtime pay, and any additional compensation, as well as income from sources other than the employer. The amount is limited by the lesser of what appears in the employer's financial records, the premium-paid amount, or the Maximum Covered Monthly Earnings allowed by the policy (which equals the Maximum Monthly Benefit divided by the Benefit Percentage shown in the Schedule of Benefits). An exception applies for determining Partial Disability Monthly Benefit, where Basic Monthly Earnings should not exceed what's in the employer's financial records.
<EOS>
According to Lincoln Policy 4939955, as per Indiana law, benefits will be paid in a manner advantageous to the claimant. Notably, when calculating benefits, the policy takes into account both current and future earnings. Specifically, if the claimant's earnings are expected to exceed their average weekly wage at the time of injury by more than 20%, then benefits will be calculated based on the anticipated higher income. Conversely, if the claimant's future earnings are projected to be less than 80% of their average weekly wage at the time of injury, benefits will be adjusted proportionally. This adjustment is effective as long as the lower earning capacity continues.
<EOS>
According to Lincoln Policy 4939955.pdf, on row 2 of page 6, The Lincoln National Life Insurance Company (LINCO), an Indiana corporation, is identified as the company providing the insurance. LINCO's official address is located at 8801 Indian Hills Drive, Omaha, Nebraska 68114-4066.
<EOS>
According to Lincoln Policy 4939955.pdf, the term "DAY or DATE" refers to a specific timeframe that begins at 12:01 a.m. and concludes at 12:00 midnight (standard time). This designation is significant in relation to both effective dates and termination dates. In terms of policyholder's place of business, it applies to both instances; however, for effective dates, it signifies the beginning of the period, while for termination dates, it denotes the end. The importance lies in understanding that these timeframes play a crucial role in determining policy validity and duration.
<EOS>
According to Lincoln Policy 4939955, a Disability Benefit under a Retirement Plan is a payment that is made due to disability as defined in the plan itself. This benefit maintains its original value without reduction when compared to the Retirement Benefits that would have been paid at the normal retirement age, had no disability occurred. If the payment of this benefit causes such a reduction, it is deemed a Retirement Benefit under this policy.
<EOS>
This information from Lincoln Policy 4939955.pdf reveals the Elimination Period, shown in the Schedule of Benefits, is the number of days of Disability during which no benefit is payable. It commences on the first day of Disability and ends when the necessary number of days is accumulated within a period not surpassing two times the Elimination Period. During a disability, the Insured Employee can return to full-time work for up to the Elimination Period, but only days of disability caused by the same or related Sickness or Injury are counted towards satisfying this period. Days worked during disability will not contribute to the Elimination Period. Only days of disability related to the same or a linked illness or injury are considered for the Elimination Period calculation.
<EOS>
As per Lincoln Policy 4939955.pdf, an Employee or Full-Time Employee is defined as a person whose primary occupation is with the Employer, earning regular wage/salary, scheduled to work at least the Minimum Hours Per Week shown in the Schedule of Benefits, and belonging to an Eligible Class eligible for coverage under this Policy. They must not be temporary or seasonal workers and should be either a U.S. citizen or legally authorized to work in the United States.
<EOS>
According to Lincoln Policy 4939955.pdf, the employer is identified as the policyholder. This definition extends to any associated divisions, subsidiaries, or affiliated companies named in the document. Notably, this designation is significant within the context of the Application or Participation Agreement, a crucial aspect of the policy.
<EOS>
According to Lincoln Policy 4939955.pdf (page 6, rows 55-56), 'Evidence of Insurability' refers to a statement detailing an Employee's medical history. This evidence is utilized by the company to decide on insurance acceptance or increasing the coverage amount. The Employee is responsible for providing this proof at their own expense.
<EOS>
This Lincoln Policy 4939955 section outlines Family or Medical Leave (FMLA). It follows federal FMLA law (the Family and Medical Leave Act of 1993) and state equivalents, as per the employer's leave policy. The leave can span up to 12 weeks in a 12-month period, either consecutive or intermittent, or on a part-time basis. If an employee is entitled to both federal and state FMLA leaves, they may opt for the more advantageous one. An employee on FMLA due to their own health condition at Policy coverage initiation is not considered Actively at Work. The leave must adhere to the approved duration by the employer and the applicable law.
<EOS>
According to Lincoln Policy 4939955, the 'Full-Time' status for Partial Disability Monthly Benefits refers to an Insured Employee who was regularly scheduled to work at their own occupation during the month preceding either: a) the date when the Elimination Period begins, or b) the date of an approved leave of absence commencement, if the Elimination Period starts during a leave of absence with continued coverage. The schedule and number of hours worked should be considered for this assessment.
<EOS>
According to Lincoln Policy 4939955.pdf, an Injury is defined as an accidental bodily harm that necessitates treatment by a Physician and directly, independently of all other causes, results in a Disability starting during the Insured Employee's coverage under this Policy. The Disability must begin while the employee is insured, ensuring that the policy covers only injuries occurring after its activation.
<EOS>
According to Lincoln Policy 4939955.pdf, the term "INSURANCE MONTH" or "POLICY MONTH" refers to a specific duration from 12:01 a.m. Standard Time at the Policyholder's business on the first day of any given calendar month to 12:00 midnight on the last day of that same month.
<EOS>
This information from Lincoln Policy 4939955.pdf outlines the definition of 'MAIN DUTIES' or 'MATERIAL AND SUBSTANTIAL DUTIES'. These are essential job tasks that the Insured Employee typically performs and cannot be reasonably modified or omitted, applying the standards of the Americans with Disabilities Act for reasonable accommodation, regardless if the employer is subject to the Act or not. Job modifications or omissions by the employer do not necessarily render the Insured Employee incapable of performing these main duties.
<EOS>
According to Lincoln Policy 4939955.pdf, medically appropriate treatment for the insured employee's disability is defined as diagnostic services, consultations, care, or services that align with the disabling condition, provided by a physician licensed in accordance with said condition and adhering to professionally recognized standards of medical practice. The treatment must be consistent with the symptoms or diagnosis causing the disability.
<EOS>
According to Lincoln Policy 4939955.pdf, Military Leave is a leave of absence regulated by the Uniformed Services Employment and Reemployment Rights Act of 1994 (USERRA) and any subsequent amendments. This leave must adhere to both the employer's leave policy and federal USERRA law. The duration of this leave does not surpass the limits prescribed by USERRA law.
<EOS>
This policy (Lincoln Policy 4939955.pdf, pages 8 row 26) defines the Monthly Benefit as the amount paid by the company to a disabled employee. The disability status could be total or partial. The payment continues until the employee recovers, retires, or reaches age 65, whichever occurs first. If total disability persists after two years, the benefit may increase up to a maximum of 60%. In case of death during the period of disability payments, any remaining future benefits will be paid to the beneficiary designated by the employee. The initial Monthly Benefit is based on the employee's annual base salary and the number of years of service at the time of disability.
<EOS>
According to Lincoln Policy 4939955.pdf, the term "OWN OCCUPATION" refers to the occupation, trade, or profession in which the insured employee was employed prior to disability and served as their main source of earned income. This encompasses a collective description as defined by the U.S. Department of Labor's Dictionary of Occupational Titles, including any work within the same occupation for pay or profit, regardless of whether it is with the employer, another firm, or self-employed. The definition does not require a suitable opening to be available with the employer or in the local labor market at the time of disability.
<EOS>
During the Elimination Period and Own Occupation Period, as defined in Lincoln Policy 4939955.pdf, Partial Disability signifies that an Insured Employee, due to an Injury or Sickness, is unable to perform one or more of their main duties in their Own Occupation, either part-time or full-time while engaged in Partial Disability Employment. After the Own Occupation Period, this definition transitions, with the Insured Employee being unable to execute one or more main duties of any occupation that their training, education, or experience allows, again on a part-time or full-time basis, and still engaged in Partial Disability Employment.
<EOS>
According to Lincoln Policy 4939955.pdf, Partial Disability Employment refers to a situation where the Insured Employee's hours or production are reduced, one or more Main Duties are reassigned, or they are working in a lower-paid occupation due to a disability. For this partial status to apply, the current earnings must be at least 20% of Predisability Income but not exceed the percentage specified in the Partial Disability Benefit section. This policy applies only to the Insured Employee's original or any other occupation.
<EOS>
According to Lincoln Policy 4939955.pdf, a Physician is defined as either: a licensed medical doctor authorized to prescribe, administer drugs, or perform surgery; or any other dually-licensed practitioner as per state law equivalent to a medical doctor. The physician must act within their licensed scope and provide Medically Appropriate Treatment for the Insured Employee's disabling condition. They are not the Insured Employee or a relative of the employee, including spouse, siblings, parents, children, grandparents, or relatives of those degrees by marriage.
<EOS>
According to Lincoln Policy 4939955.pdf, the term 'Policyholder' refers to the individual, corporation, trust, or other entity listed on the policy's Face Page. This designation holds significance as it represents the primary entity responsible for this insurance contract. The Policyholder's obligations and rights are defined within the terms of the policy. Any subsequent changes to the Policyholder require formal notification and adjustments to the policy accordingly.
<EOS>
According to Lincoln Policy 4939955, the term 'Regular Care of a Physician' or 'Regular Attendance of a Physician' refers to an Insured Employee who:

1. Regularly visits a licensed physician, as frequently required by standard medical practice, for effective management and treatment of their disabling condition.
2. Receives Medically Appropriate Treatment from this physician, whose specialty is consistent with the disabling condition.

These visits and treatments must be conducted in accordance with accepted medical standards to ensure coverage under the policy.
<EOS>
According to Lincoln Policy 4939955.pdf, a Retirement Benefit under a Retirement Plan can be paid either as a lump sum or periodically. Contributions made by an Insured Employee are not considered part of the benefit. Instead, these contributions are assumed to be received over the employee's expected remaining life, regardless of when they are actually received. The benefit is payable upon early or normal retirement, or disability. If disability occurs, the payment may reduce the benefit that would have been paid at normal retirement age under the plan, had disability not occurred.
<EOS>
According to Lincoln Policy 4939955.pdf, a Retirement Plan refers to either a defined benefit or contribution plan that offers benefits to employees and is not solely funded by employee contributions. It does not include 401(k), profit-sharing, thrift plans, informal salary continuance plans, IRAs, TSAs, stock ownership plans, or non-qualified deferred compensation plans. An Employer's Retirement Plan also encompasses any plan that is part of a federal, state, county, municipal, or association retirement system, or for which the insured employee is eligible due to employment with the employer.
<EOS>
This section of Lincoln Policy 4939955 outlines the SICK LEAVE or SALARY CONTINUANCE PLAN, a benefit plan established and maintained by the Employer for employees. This plan continues payment of an Insured Employee's Predisability Income for a specified period after they become Disabled. However, it excludes compensation paid to an Insured Employee for work performed during their Disability. This plan is not the same as the employer-paid compensation during a disability.
<EOS>
Under Lincoln Policy 4939955, the term 'Total Covered Payroll' refers to the aggregate of all Basic Monthly Earnings for each insured employee. This policy calculation encompasses earnings subject to premium rates and insurance charges, with potential adjustments for overtime, bonuses, and commissions. The policy stipulates that such earnings should be calculated on a pre-tax basis, excluding any federal or state taxes. Furthermore, the payroll figures are typically calculated on a monthly basis, with premium payments due according to the payment schedule outlined in the policy.
<EOS>
According to Lincoln Policy 4939955.pdf, Total Disability is defined as follows: During the Elimination Period and Own Occupation Period, an Insured Employee is considered Totally Disabled if they are unable to perform each of their own occupation's main duties due to an Injury or Sickness. After the Own Occupation Period, Total Disability is determined if the Insured Employee cannot perform any occupation for which their training, education, or experience reasonably allows, given an Injury or Sickness. Loss of a professional, occupational license, certification, or driver's license does not automatically constitute Total Disability. This policy applies only to the specified dates and percentages stated within the document.
<EOS>
According to Lincoln Policy 4939955.pdf, an Employee must complete a continuous period of service before being eligible for coverage under this policy. This waiting period varies, and prior service credit towards the waiting period is explained in the provision titled "Prior Service Credit Towards Waiting Period." Continuous employment without interruption is required except as specified by the Prior Service Credit provision. The length of the waiting period isn't explicitly stated but can be found in the referenced section. Employees should note that eligibility requirements may apply before enrollment in the policy.
<EOS>
This Lincoln Policy 4939955 consists of the policy itself and any amendments, the Policyholder's application, applications or agreements from Participating Employers, and individual applications of Insured Employees. All statements made by the Policyholder and Insured Employees are representations, not warranties, except when written and signed statements by an Insured Employee contradict this policy's coverage. Such statements must be furnished to the respective Insured Employee.
<EOS>
According to Lincoln Policy 4939955.pdf on pages 11 and rows [21-30], the Group Insurance Service Office is authorized to determine insurability of a group or any individual within it, make contracts on behalf of the company, amend or waive any provisions of this policy, or extend premium payment deadlines. Any changes made must be in writing and signed by a Company Officer for validity.
<EOS>
This policy's validity cannot be contested after it has been active for two years from issue date, or for any Insured Employee following two years of coverage during their lifetime. The clause does not restrict challenges based on eligibility conditions, exclusions, and limitations within the policy, or unrelated provisions. Other policy defenses remain valid at all times.
<EOS>
This insurance policy from Lincoln Policy 4939955 allows the company to cancel (rescind) coverage issued during the first two years for an Insured Employee if a claim is made and a Material Misrepresentation was made on the application. A Material Misrepresentation is any incomplete or untrue statement that would have led the company to deny coverage. The insurance will be voided back to its effective date, with all premiums refunded except for those used to pay claims benefits. Additionally, the company reserves the right to recover excess claim payments.
<EOS>
This non-participating policy (Lincoln Policy 4939955.pdf, pages 11, row 55) signifies that the policy holder will not reap any benefits from the divisible surplus of the company. In other words, this insurance product does not share profits with its customers as participating policies might. This policy's structure is fixed and does not adjust over time like participatory ones do.
<EOS>
This information from Lincoln Policy 4939955.pdf (pages 11-12, rows 58-82) outlines the requirements for the Employer to provide necessary details for insurance administration:

   1. Report changes regarding eligible employees' coverage, including new eligibles, altered coverage amounts, or ended eligibility.
   2. Provide occupational information and relevant facts required for claim management.
   3. Furnish any additional information the Company may deem necessary. The Company has access to inspect Employer records related to this Policy at any reasonable time.

   Clerical errors in the Employer's records will neither void nor terminate insurance coverage nor extend it beyond its termination date. Any premium adjustment due to an error will be limited to the 12-month period preceding the Company's receipt of proof for such adjustment. If a premium adjustment involves returning unearned premium, the return amount will be capped at the 12-month period preceding the date of adjustment.

   GL3001-LTD-7 04 11 06/01/12
<EOS>
According to Lincoln Policy 4939955.pdf, any misstated facts about an Insured Employee may lead to adjustments in premiums and validation of insurance benefits. If the Insured Employee's age has been misstated, their benefits will be equivalent to what the paid premium would have purchased at the correct age. The validity of insurance under this policy is determined by the true facts.
<EOS>
According to Lincoln Policy 4933995.pdf, under the Acts of the Policyholder section, the Policyholder is required to treat all Employees equally in similar circumstances and allow the Company unrestricted reliance on its actions. This obligation persists throughout the policy's term. The Policyholder must ensure consistency when dealing with their Employees to maintain fairness and avoid potential conflicts of interest that may negatively impact the Company's trust in the Policyholder's conduct.
<EOS>
According to Lincoln Policy 4939955.pdf, page 12, row 19, it is established that the Policyholder, in all aspects of this policy, acts independently and not as an agent of the Company. Under no circumstances will the Policyholder be considered the Company's representative. This clarification precludes any possibility of the Policyholder assuming such a role.
<EOS>
This policy's individual certificates, issued to each insured under Lincoln Policy 4939955, provide a summary of the benefits outlined within this insurance plan. In case of any discrepancies between the policy and the certificate, the policy takes precedence. The certificates are to be provided by the employer for distribution to the insured parties.
<EOS>
According to Lincoln Policy 4939955, any provision within this policy that contradicts applicable law will be interpreted to meet the minimum legal requirements. If a provision is ambiguous, it shall be resolved in favor of providing greater coverage to the policyholder. This ensures compliance with state statutes while maintaining the integrity of the insurance contract.
<EOS>
According to Lincoln Policy 4939955.pdf, all predisability income and premium/benefit amounts under this policy are mandated in U.S. dollars for administration consistency. This means that any payments or benefits due within the scope of this policy will be expressed and settled in American currency.
<EOS>
This information is derived from Lincoln Policy 4939955.pdf pages 12 (rows 35-39). The policy provides benefits as required by either Workers' Compensation laws or state disability insurance plan statutes. Specifically, it covers accidental injuries and occupational diseases sustained during the policy term. It also includes temporary total disability, permanent partial disability, and death benefits in accordance with respective state regulations. Additionally, the policy may cover supplemental income for workers who have reached maximum medical improvement but still require more time to recover fully, subject to state-specific eligibility criteria. The benefit percentage and duration vary based on the type of disability and applicable state laws.
<EOS>
According to Lincoln Policy 4939955 on pages 13, rows 1, 5, and 6, the policyholder is strictly prohibited from assigning the rights and benefits under this Long-Term Disability Insurance (GL3001-LTD-8). This non-assignable provision remains in effect up to the policy termination date. Any attempt to do so will be deemed invalid, and the insurance company reserves the right to refuse any claims resulting from such unauthorized assignments.
<EOS>
According to Lincoln Policy 4939955.pdf, during the Elimination Period, a written claim notice must be submitted to the Company's Group Insurance Service Office. The notice should contain the Insured Employee's name and address along with the number of this specific policy. If it is not feasible to send the notice immediately, written communication should occur as soon as possible. Failure to adhere to these guidelines may impact the claim process.
<EOS>
According to Lincoln Policy 4939955, if a disability claim arises, the company is expected to send forms within 15 days. If this does not occur, the insured employee may submit written proof of disability in a letter, detailing the start date, cause, and degree of disability. The company will subsequently provide additional claim forms periodically.
<EOS>
This information from Lincoln Policy 4939955.pdf outlines the Proof of Claim requirements. Written proof must be submitted within 90 days after disability ends, but if delayed, it should be provided as soon as possible and no later than one year after required. The proof, at the claimant's expense, should show the disability onset date, cause, and degree, along with completed statements from the Insured Employee and Employer, a physician's statement detailing any occupational performance restrictions, proof of other income, benefits from other sources affecting Policy benefits, a signed authorization for additional information, and any items reasonably required by the Company. Proof of continued disability, regular physician care, and any affecting income benefits must be provided within 45 days after requested, or benefits may be denied or suspended. Continued disability proof is at the Company's expense. The Insured Employee's lack of legal capacity does not affect these time limits.
<EOS>
According to Lincoln Policy 4939955.pdf, the insurance company reserves the right to examine the insured employee, either by a physician, specialist, or vocational rehabilitation expert of their choice, as often as necessary while a claim or appeal is in process. These exams are at the company's expense. The policy states that if the insured fails to cooperate with an examiner, declines an appointment scheduled by the company, or postpones it more than twice, benefits may be suspended or denied until the required examination is completed.
<EOS>
This information from Lincoln Policy 4939955.pdf (pages 13-14, rows 64-71) outlines the time of payment for claims. Once the company receives a complete proof of claim and confirms liability, benefits are paid: monthly during any period of liability, with pro rata payments given for less than a month; the daily rate equals 1/30 of the Monthly Benefit. Any remaining unpaid balance at the end of the period of liability is settled immediately after confirmation of claim and liability.
<EOS>
According to Lincoln Policy 4939955, a claim is deemed "clean" when it meets three criteria: the initial written proof of claim is complete, no parts of the claim are contested or hampered by any defect preventing prompt payment. A claim is also considered clean if the insurer fails to request additional information or resolve it within 45 days following receipt of the first written proof of claim. In case of such delay, the company is obligated to pay a clean claim within this period.
<EOS>
According to the Lincoln Policy 4939955, a claim may be deemed 'defective' if it lacks completeness in the initial written proof, is contested partially or wholly, or contains any other issue preventing prompt payment. To confirm liability, the company can request additional information within 45 days from receiving the first proof of claim. Any further necessary information should be provided within 45 days to settle the claim. Failure to comply with these conditions may lead to a defective claim status.
<EOS>
According to Lincoln Policy 4939955.pdf, benefits are primarily payable to the Insured Employee while alive. In the event of death, certain provisions apply: any Survivor Benefit will be distributed as outlined in relevant sections; remaining benefits will go to the Insured Employee's estate. If benefits become due for the estate, a minor, or an incompetent individual unable to provide a valid receipt, up to $2,000 may be disbursed to an entitled relative identified by the company. Payments made in good faith to such a relative release the company from further liability regarding that benefit.
<EOS>
This policy document, Lincoln Policy 4939955.pdf, outlines the procedure for a claim decision. If any part of a claim is denied, the insured employee receives a written notice within 15 days after resolution, detailing the denial reasoning based on this policy and internal guidelines. The notice also provides instructions for requesting a review of the decision and clarifies whether additional information is required to substantiate the claim. This initial notice should ideally be sent within 45 days from when the company first receives the proof of claim, given reasonable circumstances.
<EOS>
In accordance with Lincoln Policy 4939955.pdf, if the company needs more time to process a claim beyond the initial 15 days, an extension is permitted, and the insured employee will receive a written delay notice by the 15th day after the first proof of claim submission. Subsequent notices will be sent every 30 days until the claim resolution. These notices will detail any additional information required to determine liability and provide an expected decision timeline. If no decision is given within 105 days of the first proof of claim, the insured employee has a right to an immediate review as if the claim was denied.
<EOS>
According to Lincoln Policy 4939955.pdf, in certain claim situations, the Company may require additional information from the Insured Employee. This data must be provided within 45 days following the Company's request. Notably, any delay caused by this information gathering process will not add to the standard claim processing time limits. It is essential to note that if this requirement is not met, it might impact your claim resolution.
<EOS>
Within 180 days of a claim denial under Lincoln Policy 4939955, the Insured Employee may submit a written request and supporting materials for review. Upon receipt, the Company will evaluate the claim and provide a written decision notice within 45 or 90 days, depending on whether special circumstances apply. The notice includes reasons for the decision under the Policy terms and internal guidelines, potential further appeal procedures, access to relevant claim information, and options to request a state insurance department review or legal action. If the denial is upheld in part or full, the notice outlines these steps.
<EOS>
Under Lincoln Policy 4939955.pdf, if the Company requires more than 45 days to process an appeal in a unique situation, it may extend the time by up to 45 additional days. By the 30th day after receiving the review request, the Insured Employee will receive a written notice detailing the special reasons for the delay, whether additional information is needed for the claim review, and when a decision can be anticipated.
<EOS>
According to Lincoln Policy 4939955.pdf on pages 15, rows 40-41, the Insured Employee may be required to provide additional information for an appeal processing. This supplementary data must be supplied within 45 days following the Company's request, and any delay in providing it will not affect the above-mentioned time limits for appeal processing.
<EOS>
According to Lincoln Policy 4939955.pdf, an ERISA (Employee Retirement Income Security Act of 1974) participant or beneficiary must exhaust administrative remedies before filing a legal action under Section 502(a). The process entails seeking two administrative reviews of any adverse claim decision as outlined in this section. After completing the required reviews, an ERISA plan participant or beneficiary is permitted to commence legal proceedings under the federal labor law.
<EOS>
According to Lincoln Policy 4939955.pdf, row numbers 51-53 on page 15, the Company forgoes any right to contest a claimant's failure to exhaust administrative remedies under ERISA regulations. This waiver applies in cases where specific conditions are met, such as when the Company fails to respond within 45 days of receiving a request for benefits or provides an incomplete response. The deadline for the claimant to file suit is extended by the period from the date of the initial request to the date of the final decision regarding their claim.
<EOS>
According to Lincoln Policy 4939955, if overpayments occur on any short-term or long-term disability benefits, full reimbursement to the Company is necessary within 60 days. The Company retains the right to reduce future benefits and suspend payment of the Minimum Monthly Benefit, reduce benefits under any group insurance policy issued by them, or recover overpayments from the Insured Employee or their estate. This reimbursement applies regardless of whether the overpayment is due to processing errors, Other Income Benefits, fraud, misrepresentation, omission of relevant facts, or any other reason. Failure to make reimbursement may result in a reduction or suspension of benefits. This policy was updated on 06/01/12.
<EOS>
According to Lincoln Policy 4939955.pdf, any legal action to recover benefits must wait for 60 days following submission of the written proof of claim. The timeframe for such actions is limited to three years from the date the written proof of claim is required.
<EOS>
Under Lincoln Policy 4939955, the insurance company holds the authority to manage, interpret, and administer this policy, including claims resolution. They have the right to establish administrative procedures, determine eligibility, require necessary information, and resolve disputes upon internal claim reviews. Their decisions are conclusive and binding, though the insured employee may request a state insurance department review or legal action (excluding California residents). This authority encompasses resolving all questions arising under the policy.
<EOS>
According to Lincoln Policy 4939955.PDF on pages 17, rows 1, 4, and 5, eligibility for GL3001-LTD coverage requires an employee to have worked at least 20 hours a week for the past 16 consecutive weeks prior to the disability start date. The plan offers long term disability benefits that replace up to 60% of the monthly base earnings during the benefit period, with maximum monthly benefits capped at $7,500. To be eligible for this coverage, an employee must meet specific occupational and non-occupational duties after a 90-day elimination period following the disability start date. Additionally, this policy only covers disabilities that last beyond the initial 24-month period.
<EOS>
According to Lincoln Policy 4939955.pdf on pages 17, rows 3-4, eligible employee classes for insurance are specified in a schedule. The company retains the right to review and terminate any or all of these covered classes if they no longer comply with the policy's terms and conditions.
<EOS>
According to Lincoln Policy 4939955.pdf, an employee becomes eligible for coverage under this policy on the later of two dates: either the date of policy issue or upon completion of the waiting period. The waiting period, however, requires the elapsed passage of specific timeframes as per the policy's guidelines before coverage takes effect. Additionally, the policy outlines certain conditions and requirements that must be met for an employee to qualify for coverage. The duration of the waiting period and the particular conditions vary based on the nature of insurance chosen, further detailed in the specified document sections.
<EOS>
According to Lincoln Policy 4939955.pdf, prior service in an Eligible Class may be applied towards the Waiting Period under specific conditions. These include:

- Rehiring a former Employee within one year after their employment ends
- An Employee returning from an approved Family or Medical Leave, either within the 12-week leave period mandated by federal law or any longer duration as required by a similar state law
- An Employee's return from Military Leave within the timeframe specified by federal USERRA law

In all cases, the Waiting Period is detailed in the Schedule of Benefits.
<EOS>
According to Lincoln Policy 4939955.pdf, an Employee's initial coverage becomes effective at 12:01 a.m. on the earliest of the first day of the Insurance Month following their eligibility, their return to Active Work, or upon application, premium payment, or Company approval of Evidence of Insurability (if required). Increased or additional coverage also takes effect at 12:01 a.m. on the earliest of these same conditions, while decreases in coverage take effect immediately, regardless of the Employee's Active Work status.
<EOS>
This Lincoln Policy 4939955 specifies evidence of insurability is necessary under certain circumstances:

1. If an employee applies for coverage or increased coverage more than 31 days after eligibility, or enrolls after requesting to cancel, stop payroll deductions, or premium payments from the Flexible Benefits Plan account.
2. When coverage is elected following insurance termination due to cancellation requests, stopped payroll deductions, or missed premium payments.
3. If coverage lapses due to non-payment of required premiums.
4. For optional, supplemental, or voluntary coverage exceeding any Guaranteed Issue Amounts shown in the Schedule of Benefits.
<EOS>
According to Lincoln Policy 4939955.pdf, on row 1, a Long-Term Disability (LTD) benefit is provided for an Own Occupation up to age 65 if the insured becomes disabled and cannot perform their specific job duties due to sickness or injury. The waiting period is 90 days. Row 4 states that after the first 24 months, if the disability continues, the LTD benefit will be provided for Any Occupation up to age 65. On row 5, the monthly benefits are 60% of the insured's pre-disability earnings, with a maximum monthly benefit of $15,000 and a minimum of $500. The policy expires on June 1, 2012.
<EOS>
According to Lincoln Policy 4939955.pdf, an Insured Employee may switch Eligible Classes. The new coverage will take effect on the first day of the Insurance Month that follows or coincides with the date of change, excluding instances outlined in the Effective Date provision for increases or decreases.
<EOS>
According to Lincoln Policy 4939955.pdf, if an insured employee's coverage terminates due to a break in service, they can reinstate the policy upon resuming active work within specific timeframes. This process, referred to as "reinstatement," allows for re-enrollment without satisfying a new waiting period or providing additional evidence of insurability.

Reinstatement is available under various circumstances: returning from an approved family or medical leave (within the 12 weeks mandated by federal law or any longer state-law-required period), military leave, other approved leaves within six months, layoff or termination within 12 months for any reason. To reinstate coverage, the employee must apply or be re-enrolled within 31 days of returning to active work in an eligible class.

Upon reinstatement, the insurance amount may not exceed the terminated amount. The reinstated months will count towards any unmet Pre-Existing Condition Exclusion period, and a new Pre-Existing Condition Exclusion will not apply to the reinstated amount of insurance, but will apply to any increased amount. This policy applies to GL3001-LTD-10.
<EOS>
This information from Lincoln Policy 4939955.pdf outlines the conditions for terminating coverage for an insured employee. Coverage ends at midnight on the earliest of: (1) the policy or employer's termination date; (2) the date when the employee's class is no longer eligible for insurance; (3) the date the employee ceases to be a member of an eligible class; (4) the last day of the insurance month if the employee requests termination, last payment month if premium isn't paid, or end of the premium period; (5) the end of the specific insurance benefit period; (6) the employee's employment termination date, unless continuation is provided below; or (7) the date the employee enters active military duty, excluding training less than 30 days in the Reserves or National Guard. Proof of military service leads to a refund of unearned premium.
<EOS>
According to Lincoln Policy 4939955.pdf on pages 19 (rows 31, 33), if an insured employee ceases active work, their insurance coverage terminates. However, continuation rights are available under specific conditions. The employee or their beneficiary may choose to continue the coverage by paying the premiums based on level or modified whole life premium rates. This option is available until the age of 65 or for a maximum period of five years from the date of termination, whichever comes first. Premiums are payable annually in advance and can be paid using the cash value accumulated or through other acceptable payment methods. The amount of coverage that can be continued is limited to the lesser of the original face amount or the cash value at the time of termination.
<EOS>
In accordance with Lincoln Policy 4939955.pdf, disability coverage for an Insured Employee may be extended during the Elimination Period, provided the Company receives the necessary premiums from the Employer. Premium payments are waived from the satisfaction of the Elimination Period until the end of the benefits' payable period. Once this period ends, premium payments must resume if coverage is to continue. The coverage can be maintained during the benefits payable period without premium payment. If Total Disability prevents work, benefits will be paid for the duration specified in the policy.
<EOS>
This Lincoln Policy 4939955 detailing Family or Medical Leave indicates that if an Insured Employee takes approved leave, coverage can be continued until the earliest of: a) the end of the leave period granted by the employer; b) 12 weeks as required by federal law or any more generous duration mandated by state law; c) when the employee notifies the employer they won't return; or d) the start date of employment with another employer. Premium payments must be consistently provided by the employer during this period of continued coverage. In the event of extended leave, coverage may continue beyond disability benefits if less favorable.
<EOS>
According to Lincoln Policy 4939955.PDF, during an Insured Employee's Military Leave, coverage can be maintained for the same duration as an approved Family or Medical Leave. The employer is responsible for making required premium payments throughout the continuation period. Importantly, this policy only applies to specified military leave events under state or federal law.
<EOS>
According to Lincoln Policy 4939955.pdf, if an insured employee experiences a temporary lay-off or approved leave of absence (excluding Family or Medical Leave and Military Leave), coverage can be continued for three Insurance Months. This continuation begins upon the initiation of the lay-off or leave. To maintain this extended coverage, the required premium payments must be consistently remitted by the employer throughout the period of extended coverage. The policy was last updated on GL3001-LTD-10 04 19 06/01/12.
<EOS>
According to Lincoln Policy 4939955.pdf, under the conditions for continuation, an employer must not discriminate unfairly among employees in similar situations. Continuation of insurance may not be provided when an insured employee ceases active work due to a labor dispute, strike, work slowdown, or lockout. This policy is applicable on pages 20, rows 5 and 6.
<EOS>
According to Lincoln Policy 4939955, during a Disabled Employee's coverage, termination will not impact benefit payments for that specific period of Disability. This means that if an Insured individual is temporarily unable to work due to illness or injury, their policy coverage remains intact, and they will continue to receive benefits throughout this timeframe.
<EOS>
This information from Lincoln Policy 4939955.pdf outlines the conditions for terminating this policy. The Group Policyholder must provide at least 31 days' written notice before termination. The Company can terminate the policy if there are fewer than 10 Insured Employees, or less than 75% or 100% of eligible employees are insured, depending on the payment method. The Company may also terminate if the Policyholder fails to promptly provide necessary information, perform duties in good faith, or if the employer is no longer covered under state Workers' Compensation or similar programs. Termination is also possible if the Company ends all other long-term disability policies in the same state or if state law requires it.
<EOS>
According to Lincoln Policy 4939955, the Policyholder can terminate this policy by providing written notice in advance. The policy will then terminate either on the date the Company receives the notice or a mutually agreed-upon later date. However, termination won't take effect during any premium payment period. The Policyholder remains responsible for paying premiums up to the termination date. Premium payments made before termination are non-refundable.
<EOS>
According to Lincoln Policy 4939955.pdf on pages 20, row numbers 50-51, if a premium is not paid before the end of the Grace Period, the policy will automatically terminate without further action from the company. The policyholder remains responsible for all premium payments up to the termination date. It's crucial to note that non-payment triggers this termination process.
<EOS>
According to Lincoln Policy 4939955.pdf on pages 20 and 21, during a period of disability, an insured employee's participation will not impact the benefits received for that specific disability. This policy provision adheres to GL3001-LTD-11, effective from 04/20/06 and revised on 01/12/12. Benefits are payable regardless of participation during the disability period.
<EOS>
According to Lincoln Policy 4939955.pdf, coverage under this policy becomes effective only after the first premium is paid. To maintain coverage, the employer must ensure each subsequent premium is paid on or before its due date at the Company's Group Insurance Service Office. The payments should be made in U.S. dollars.
<EOS>
According to the premium rates outlined in Lincoln Policy 4939955.pdf (page 21, row 9), the initial premiums for this policy are clearly stated on the document's face page. However, it is important to note that these rates may be subject to change over time.
<EOS>
This information from Lincoln Policy 4939955.pdf outlines premium rate change scenarios:

  1. The company may adjust any premium rates on various dates, including the policy's anniversary or a later-agreed rate guarantee date.

  2. Changes in federal, state, or local law affecting liability are also applicable.

  3. The company's liability changes when the policyholder relocates, dissolves, merges, or is added/removed from the policy; ceases to be covered by Workers Compensation or similar programs; or stops providing or reducing Sick Leave or Salary Continuance Plan benefits.

  4. Coverage for one or more classes can cease under this policy, as can changes in the number of Insured Employees by 25% or more from the policy's inception or the most recent Rate Guarantee Date expiration, if later.

  5. At least 31 days' advance written notice is required for any premium rate increase, except for specific agreements between the company and policyholder.
<EOS>
According to Lincoln Policy 4939955.pdf, the monthly premium for insurance coverage is calculated as Covered Payroll multiplied by the premium rate. Premium adjustments are made on the due date coinciding or following changes in an employee's insurance status, and these changes do not adhere to a daily pro-rated basis. For instance, if an employee's insurance begins or terminates, the corresponding premium will be charged or cease from the relevant due date. Similarly, when premium payments are made other than monthly, adjustments will take effect from the subsequent due date. These methods of charging premium are for accounting purposes only and do not extend coverage beyond its intended termination date. Each premium payment includes any necessary adjustments due to recent changes yet to be accounted for. If a premium adjustment necessitates a return of unearned premium, the maximum amount returned is limited to the prior 12-month period.
<EOS>
According to Lincoln Policy 4939955.pdf, a Grace Period of 31 days is granted for each premium payment due after the first. The Policy will continue during this Grace Period; however, the Policyholder remains accountable for paying all premiums for the duration the Policy stays active. This policy requires the Policyholder to settle outstanding premiums by the end of this grace period to avoid policy termination.
<EOS>
According to Lincoln Policy 4939955.pdf, if an insured employee becomes disabled, premium payments are waived starting from the first due date following the elimination period and lasting for the entire duration of benefit payout. Should coverage need to continue after a waiver period, premiums must be resumed upon their due dates. This policy applies to the GL3001-LTD-12 10 Any Occ, Standard Integ. plan, effective from June 1st, 2012.
<EOS>
This information from Lincoln Policy 4939955.pdf details the Total Disability Monthly Benefit for an insured employee. The benefit is payable after the Elimination Period if the employee is Totally Disabled, becomes disabled while insured, is under a physician's regular care, and provides proof of continued total disability and care upon request.

The benefit ceases on the earliest of: the employee's recovery or death; the end of the Maximum Benefit Period; or the employee's ability to engage in Partial Disability Employment, either in their own occupation during the Own Occupation Period or any occupation after this period. Proportional benefits are paid for a partial month of total disability.

The company may deny or suspend payments if the employee: fails to take a required medical exam without good cause; fails to cooperate with the examiner; postpones a required exam more than twice; does not provide additional proof within 45 days after request; or does not provide proof of application for any Other Income Benefits within 45 days after request.

Partial disability employment and benefit suspension dates are at the company's option. Additionally, proportional benefits are provided for a partial month of total disability.
<EOS>
This policy from Lincoln (4939955.pdf) specifies the Total Disability Monthly Benefit. It is calculated as a multiple of the Insured Employee's Basic Monthly Earnings with the Benefit Percentage, but capped at the Maximum Monthly Benefit. Other Income Benefits are subtracted from this amount. The benefit will not fall below the Minimum Monthly Benefit unless the sum of the Minimum Monthly Benefit, Other Income Benefits exceeds 100% of the Insured Employee's Basic Monthly Earnings. The Benefit Percentage, Maximum Monthly Benefit, Minimum Monthly Benefit, and Maximum Benefit Period are all detailed in the Schedule of Benefits.
<EOS>
This information is derived from Lincoln Policy 4939955.pdf on pages 24, rows 6 and 7, detailing the ADL Benefit. The policy provides an Accelerated Death Benefit (ADB) for terminal illness or irreversible impairment, allowing early access to up to 90% of the death benefit sum. This ADB can be received in increments of $10,000 up to a maximum of $500,000 per request. To qualify, policyholders must have less than 24 months (60 months for certain terminal illnesses) left to live as determined by attending physicians. This ADB is available only once during the coverage period and is considered a loan that reduces the death benefit amount.
<EOS>
According to Lincoln Policy 4939955.pdf, an Insured Employee will receive coverage for Long Term Disability Benefits under the Progressive Income Benefit as follows: The effective date of coverage is determined upon either the commencement of the insured's disability or the policy's effective date, whichever occurs later. If this provision is added to the policy at a later time through amendment, the effective date of that addition will also be specified. The duration of benefits extends to age 65 or until the Insured Employee returns to work, whichever comes first. The percentage of the covered income replaced for the first two years of disability is 60%, which increases to 70% thereafter.
<EOS>
According to Lincoln Policy 4939955.pdf, an Insured Employee's effective date for this benefit will be delayed if they cannot perform the Activities of Daily Living or suffer from a Cognitive Impairment on that date. The employee will become insured when they can safely and independently perform all Activities of Daily Living without assistance or their Cognitive Impairment resolves.
<EOS>
Per Lincoln Policy 4939955, upon completing the Elimination Period as indicated in the Schedule of Insurance, the company will pay an additional monthly benefit to an Insured Employee who is concurrently receiving either Total Disability or Partial Disability Monthly Benefits under this policy. This extra payment is applicable if the employee can provide proof of either Loss of Activities of Daily Living or Cognitive Impairment (as defined). The proof must be submitted at the employee's own expense.
<EOS>
This information from Lincoln Policy 4939955.pdf on pages 23 (rows 28-35) outlines the Progressive Income Benefit. The benefit equals 10% of the Insured Employee's Basic Monthly Earnings, but it does not surpass the Maximum Monthly Benefit for Long Term Disability Benefits or $5,000 per month (whichever is lower). The Schedule of Insurance reveals the Maximum Monthly Benefit for Long Term Disability Benefits. Notably, this benefit remains unaffected by any Other Income Benefits or earnings from any form of employment.
<EOS>
According to Lincoln Policy 4939955.pdf, the Progressive Income Benefit terminates upon the earliest occurrence of:

1. The Insured Employee's recovery from Loss of Activities of Daily Living or Cognitive Impairment (as defined).
2. The cessation of Total Disability or Partial Disability Monthly Benefits under this Policy for the Insured Employee.
3. The expiration of the Maximum Benefit Period, or
4. The death of the Insured Employee.

In case this policy includes a Family Income Benefit, the Eligible Surviving Spouse or Children will not receive increased payments due to the Insured Employee's receipt of the Progressive Income Benefit.
<EOS>
According to the 'Loss of Activities of Daily Living' section in Lincoln Policy 4939955.pdf, an Insured Employee is considered disabled if, due to an injury or sickness, they cannot safely and independently perform at least two out of six essential daily living activities without substantial assistance from another person. The activities include personal hygiene, continence, transferring (e.g., moving in and out of bed), dressing, eating, and maintaining safe surroundings. If the Insured Employee requires hands-on help for most of these activities, they are considered to have lost these abilities. This section defines disability under the policy.
<EOS>
According to Lincoln Policy 4939955.pdf, bathing involves cleaning oneself in a tub, shower, or through sponge baths with or without equipment on row 60, page 23. The policy covers this activity as long as it's performed under the care of a medical professional when necessary. It also includes the use of any required bathing equipment, but exclusions may apply due to specific policy terms and conditions. This coverage is subject to the policy terms and limits specified in your policy contract.
<EOS>
According to Lincoln Policy 4939955.PDF on pages 23 (rows 62 and 63), the coverage extends to braces or artificial limbs that are usually worn. This implies that these specific aids, when medically necessary, are included in the policy's scope. The policy does not differentiate between various types of braces or limbs but rather focuses on those routinely used by the insured individual.
<EOS>
According to Lincoln Policy 4939955.pdf on page 23, row 65, the policy covers assistance related to toileting, including getting on and off the toilet, as well as performing associated personal hygiene tasks. The policy provides coverage for these services up to a maximum percentage based on the individual's level of disability. For example, if an individual requires extensive or constant supervision due to their condition, they may receive 100% reimbursement for related costs. However, if an individual only needs occasional assistance, they may receive a lower percentage of reimbursement. This coverage is subject to the policy's overall limits and duration.
<EOS>
According to Lincoln Policy 4939955, page 23 rows 67-69, the policy covers mobility assistance during transitions in and out of beds, chairs, or wheelchairs. This may involve using devices such as canes, walkers, crutches, grab bars, and other support equipment, or mechanical/motorized aids. The coverage applies to both short-term and long-term use of these items for individuals requiring assistance due to injury, illness, or disability. Additionally, the policy specifies that any medical devices or adaptations required for safe mobility will be considered on a case-by-case basis.
<EOS>
According to Lincoln Policy 4939955.pdf at pages 23 and rows 71-72, continence refers to the ability to control bladder and bowel functions voluntarily. If an individual is not continent, personal hygiene requirements related to catheter or colostomy bag care must be observed. The policy does not specify any specific exceptions or timeframes for these necessities. These requirements are integral to the policy's coverage terms.
<EOS>
According to Lincoln Policy 4939955.pdf, under the 'Eating' section ([23, 24] pages, rows [74, 75, 3]), obtaining nourishment is defined as consuming food prepared and made available through conventional means such as eating from a table, tray, or container like a bowl or cup, or utilizing special equipment such as feeding tubes or intravenous tubes (GL3001-LTD-12D 01). This policy requirement emphasizes the importance of proper consumption methods in the context of insurance coverage.
<EOS>
According to Lincoln Policy 4939955.pdf, cognitive impairment refers to a permanent deterioration or loss of cognitive or intellectual capacity in the Insured Employee, resulting from moderate to severe head trauma, stroke, Alzheimer's disease, or other irreversible dementia. This impairment necessitates another person's active, hands-on assistance or verbal cues to prevent harm, diagnosed by a Physician based on clinical evidence and reliable standardized tests of short/long-term memory, orientation, and deductive reasoning. The diagnosis must be confirmed through these tests.
<EOS>
This information from Lincoln Policy 4939955.pdf defines "Mental Sickness" as any emotional, behavioral, or psychological disorder, regardless of its cause, such as schizophrenia/schizoaffective disorder, bipolar affective disorder, manic depression, psychosis, obsessive-compulsive, depressive, panic, and anxiety disorders. Treatment typically involves psychotherapy, psychotropic drugs, or similar methods by a psychiatrist, clinical psychologist, or mental health care provider. Exclusions include irreversible dementia resulting from stroke, trauma, viral infection, Alzheimer's disease, and other conditions not usually treated with such therapies.
<EOS>
In accordance with Lincoln Policy 4939955.pdf, a 'Pre-Existing Condition' refers to any illness or injury for which the insured received treatment within 12 months prior to their policy effective date. This treatment can encompass physician consultations, care and services, diagnostic measures, and the prescription, refill, or consumption of prescribed drugs or medicines. Any such conditions are not covered under this policy unless they meet specified exception criteria.
<EOS>
According to the Lincoln Policy 4939955 on pages 24, rows 40, this policy does not provide coverage during a period of disability that commences before the insured's effective date of coverage under this benefit. This means if an individual becomes disabled prior to the activation of their insurance, they will not receive benefits from this policy. The critical date for determining eligibility is the effective date of coverage specified in the policy.
<EOS>
According to the specified section of Lincoln Policy 4939955, benefits for Loss of Activities of Daily Living or Cognitive impairment are not payable if the impairment is caused, contributed to, or results from a Pre-Existing Condition within the first 24 months following the Insured Employee's effective date. However, this exclusion is waived if the condition has not received any Treatment during the 6 consecutive months following the effective date under this benefit.
<EOS>
According to Lincoln Policy 4939955, Disability benefits will not be paid during a period of disability that is caused or exacerbated by Mental Sickness, alcoholism, or the voluntary use of Controlled Substances. These Controlled Substances are defined under Title II of the Comprehensive Drug Abuse Prevention and Control Act of 1970, as amended. However, if a Physician prescribes the controlled substance, payment may still be possible.
<EOS>
According to Lincoln Policy 4939955.pdf, premium and other provisions of this policy adhere to the Definitions, Exclusions outlined on pages 24 and 25. Specifically, Any Occupation Disability coverage under GL3001-LTD-13 is subject to the Residual Disability definition as of June 1, 2012. Additionally, proof of claim is required for any benefits paid. The policy reserves the right to waive this requirement in specific situations.
<EOS>
This information from Lincoln Policy 4939955.pdf outlines the Partial Disability Monthly Benefit. To qualify, an Insured Employee must be under a physician's regular care, engaged in Partial Disability Employment with at least 20% Predisability Income, and provide proof of continued disability upon request. The Elimination Period may consist of days of Total or Partial Disability, or both.

The benefit ceases when the Insured Employee is no longer partially disabled or dies, the Maximum Benefit Period ends, or they earn more than 99% of Predisability Income after 24 months, or 85% after the same period. The employee can choose not to work full-time in their own occupation during the Own Occupation Period or any occupation post-Own Occupation Period.

Proportional benefits are paid for partial months of disability, and payments may be denied or suspended for various reasons such as failing a required medical exam without good cause, failing to cooperate with the examiner, postponing an exam more than twice, not providing additional proof within 45 days, or not providing proof of application for Other Income Benefits within 45 days.
<EOS>
Under the Progressive Calculation section of Lincoln Policy 4939955, specific to Classes 1 and 2 (GL3001-LTD-13.4), the policy outlines certain terms for long-term disability benefits. If a claimant becomes disabled due to sickness or injury, they may receive 60% of their monthly base salary up to $6,000 per month. This benefit is subject to review every three years. The benefit period lasts until the claimant reaches age 65 or returns to work. Additionally, the policy features a 24-month maximum duration for the Ordinary Disability definition and a 72-month maximum for the Specialty Occupation Disability definition.
<EOS>
In accordance with Lincoln Policy 4939955.pdf at pages 26, rows 5, 6, 8, and 10, the Partial Disability Monthly Benefit compensates for lost income during partial disability. This benefit is capped at the Total Disability Monthly Benefit, which would otherwise be paid in full for total disability without employment. Therefore, the Partial Disability Monthly Benefit equates to the lesser of either A or B: A being a specified percentage of the Insured Employee's pre-disability earnings or B being the amount equal to the Total Disability Monthly Benefit minus any other disability benefits currently received. These payments continue until the end of the benefit period, which is typically two years from the date of disability onset.
<EOS>
This policy from Lincoln (4939955) on page 26, rows 12 and 14, specifies that the calculation of Lost Income benefits involves deducting all other income, including benefits derived from Partial Disability Employment. These benefits are subject to a maximum percentage, typically 80%, of the pre-disability income. The policy also outlines that such benefits may not exceed a specific period, usually two years following the onset of disability. Additionally, it's important to note that this policy applies only to the Insured Employee as detailed in the document.
<EOS>
This information from Lincoln Policy 4939955.pdf outlines the calculation of the Total Disability Monthly Benefit. The Insured Employee's Predisability Income is multiplied by the Benefit Percentage (limited to the Maximum Monthly Benefit), except for earnings from Partial Disability Employment. Other Income Benefits, excluding those from such employment, are subtracted. The Partial Disability Monthly Benefit ensures it's never less than the Minimum Monthly Benefit. All relevant figures - Benefit Percentage, Maximum Monthly Benefit, Minimum Monthly Benefit, and Maximum Benefit Period - can be found in the Schedule of Benefits (GL3001-LTD-14-INT 10 Any Occ, Prim & Fam SS Integ. 26 06/01/12). The Benefit Percentage, Maximum Monthly Benefit, Minimum Monthly Benefit, and Maximum Benefit Period are subject to change based on the policy's provisions.
<EOS>
According to the specified sections of Lincoln Policy 4939955 on pages 27 rows 4, 5, and 6, any additional income an insured employee receives will impact their monthly benefit. This includes benefits, awards, settlements, or earnings derived from specific sources, excluding Retirement Benefits and regular Earnings. However, such income must stem from the same disability for which a monthly benefit is claimable under this policy. In calculating the monthly benefit, the additional income will be offset.
<EOS>
This information from Lincoln Policy 4939955.pdf on pages 27 (rows 9-21) outlines the Workers' Compensation coverage. It applies to injury or sickness caused by job-related activities, encompassing laws like Workers' Compensation, occupational disease law, Jones Act, Longshoreman's and Harbor Worker's Act, Maritime Doctrine of Maintenance, Wages or Cure, or any alternative plans. Benefits include those for partial or total disability (temporary or permanent) as well as vocational rehabilitation.
<EOS>
This document, Lincoln Policy 4939955.pdf, outlines various compulsory benefits the Insured Employee may be entitled to under relevant state laws. These benefits encompass temporary disability income, mandated by certain state regulations, no-fault auto insurance laws, and any other compulsory benefit acts or legislation. The employee's eligibility for these benefits may impact the disability income benefits stipulated in the policy. For instance, under state temporary disability income benefit laws, an employee might be entitled to partial wage replacement should they become temporarily unable to work due to illness or injury. Similarly, no-fault auto insurance laws, when applicable, would provide benefits in case of accident-related injuries, regardless of fault. It is essential to understand and comply with these requirements as they may affect the total disability income benefits the employee receives under this policy.
<EOS>
According to Lincoln Policy 4939955.pdf, any other group insurance plans (excluding credit or mortgage insurance) or no-fault auto plans that the Insured Employee may be eligible for will affect their disability income benefits. These other plans are not included in the policy coverage. The exact impact of these external plans on the benefits will depend on their terms and conditions. It is crucial to understand these plans' specific provisions to determine any potential overlap or conflict with this policy. Please refer to the mentioned page numbers [27] and rows [33, 34, 35, 36] for further details.
<EOS>
According to Lincoln Policy 4939955.pdf, under Employee Benefit Plans (page 27, rows 39-40), the disability income benefits for the Insured Employee are not inclusive of sick leave or salary continuance plans. This exclusion applies to vacation pay, severance pay, and compensation for work performed during a Disability. These policies operate independently.
<EOS>
According to Lincoln Policy 4939955, if an insured employee receives Disability Benefits or Retirement Benefits under their Employer's Retirement Plan, these benefits will be offset by any other Disability or Retirement income the employee receives from the insurance policy. This offset applies to any Disability or Retirement income received on or after the effective date of the insurance policy and before the insured employee reaches age 65. The percentage of offset varies depending on the type of benefit and the time period involved, with details provided in the policy schedule. Additionally, if an insured employee dies before receiving their Disability Benefits or Retirement Benefits under their Employer's Retirement Plan, any surviving beneficiary may be entitled to receive these benefits, subject to the terms of the policy and the Employer's Retirement Plan.
<EOS>
According to Lincoln Policy 4939955.PDF on pages 27 and rows 46-47, Social Security and other Government Retirement Plans benefits will be offset in the event of an accidental death or dismemberment claim. The percentage of offset varies depending on the nature of the plan: if the deceased was receiving benefits before their death, the policy pays the lesser amount of either the benefit amount payable at the time of death under the government plan or 75% of the policy's face amount; if the deceased was not yet receiving benefits but was eligible, the policy will pay up to the amount the deceased would have received in benefits during their lifetime, which is calculated based on age, earnings, and other factors at the time of death. The offset does not apply if the surviving spouse or children are already receiving benefits under the government plan. This policy is subject to any applicable federal, state, and local laws and regulations regarding Social Security or other Government Retirement Plans.
<EOS>
According to Lincoln Policy 4939955.pdf, if an insured employee becomes disabled, certain child benefits become eligible. The coverage extends to the employee's biological, adopted, or stepchildren under the age of 26. This benefit is contingent on the child being unmarried and financially dependent on the disabled parent. The policy provides a monthly payment equal to 15% of the disability income amount, subject to a maximum limit. The policy duration for this child benefit matches the insured employee's disability period or until the child turns 26, whichever is later.
<EOS>
According to Lincoln Policy 4939955, under unreduced retirement benefits, a spouse or child may be eligible if the Insured Employee is eligible themselves. This eligibility extends beyond the employee's lifetime, with survivor benefits available after their demise. The policy specifies that the retirement benefits for the eligible recipient are typically 60% of the Insured Employee's monthly retirement income at the time of their death. However, this percentage can be higher or lower depending on certain factors such as the age difference between the employee and the beneficiary. The eligibility requirements stipulate that the spouse must not be currently receiving a retirement benefit based on their own employment, while the child must be under 26 years old or financially dependent due to a disability. The start date for these benefits is determined by the age at which the Insured Employee retires and the terms of the policy.
<EOS>
This Lincoln Policy 4939955 outlines a clause concerning reduced retirement benefits for the Insured Employee and their spouse. These benefits stem from Government Retirement Plans such as the federal Social Security Act, Jones Act or Railroad Retirement Act, the Canada Pension Plan or Quebec Pension Plan, and any similar plans worldwide. By June 1, 2012, this policy has been integrated with Any Occ, Prim & Fam SS Integ.

The Government Retirement Plans include disability and retirement benefits from federal, state, provincial, or other political units of various countries. The reduction in these benefits is taken into account if the Insured Employee receives reduced benefits. This reduction can affect the total amount payable under this policy.
<EOS>
According to Lincoln Policy 4939955.pdf, the term "Earnings" encompasses any income an Insured Employee earns or receives from any occupation, as reported for federal income tax purposes. This includes a salaried or hourly employee's gross earnings (shown on Form W-2), comprising wages, tips, commissions, bonuses, overtime pay, and pre-tax contributions to Section 125 Plans, flexible spending accounts, or qualified deferred compensation plans. For proprietors, net profit is calculated from Form 1040, Schedule C. Similarly, professional corporation shareholders' net profit is also determined by Form 1040, Schedule C. Partners report their net earnings from self-employment on Schedule K-1, along with any W-2 earnings. Lastly, Subchapter S Corporation shareholders' net earnings from trade or business activities are shown on Schedule K-1.
<EOS>
This information from Lincoln Policy 4939955.pdf outlines exceptions to the Other Income Benefits, not included in offset calculations on pages [28, 29]. These exclusions encompass:

1. Cost-of-living increases in certain Other Income Benefits (excluding Earnings), effective only after the initial offset during a Disability period.
2. Reimbursement for hospital, medical, or surgical expenses, attorney fees, and other costs related to claiming Other Income Benefits.
3. Group credit or mortgage disability insurance benefits, early retirement benefits not under federal Social Security Act or Government Retirement Plan, contributions or termination benefits from the Employers Retirement Plan, and benefits from 401(k), profit-sharing, thrift plans, IRAs, TSAs, stock ownership plans, or non-qualified deferred compensation plans.
4. Vacation pay, holiday pay, severance pay, and disability income benefits under individual policies, association group plans, franchise plans, auto liability insurance (excluding no fault), except for auto insurance.

These exclusions are effective as of June 01, 2012 (GL3001-LTD-14-INT 10 Any Occ, Prim & Fam SS Integ.).
<EOS>
According to Lincoln Policy 4939955, page 29, row 5, any Income Benefits that impact Policy benefits are subject to specific rules. If the Insured Employee receives Other Income after becoming disabled and during the receipt of Policy benefits, these Other Income amounts will be offset against the Policy benefits. This offset may reach up to 100%, depending on the type of Other Income received. The policy considers various forms of Other Income, such as disability benefits from other policies or government programs like Social Security Disability Insurance (SSDI) and Supplemental Security Income (SSI). The policy will continue to pay the Policy benefits minus the offset amount, ensuring the total income does not exceed 85% of the Insured Employee's pre-disability earnings.
<EOS>
According to Lincoln Policy 4939955.pdf, an Insured Employee entitled to Other Income Benefits (e.g., Social Security) must timely apply, seek reconsideration upon denial, and request a hearing if denied again; the Employer is also obliged to cooperate in filing Workers' Compensation or similar claims. Failure to pursue these benefits promptly allows the Company to either deny/suspend Monthly Benefits or reduce them by an estimated amount.
<EOS>
In accordance with Lincoln Policy 4939955.pdf, if a claim for Social Security or other Government Retirement Plan benefits is pending, the Insured Employee must choose one of two options in writing:

1) Option 1 (no written election made): Monthly Benefits will be reduced according to this option.
2) The employee can elect to reduce their Monthly Benefit by a specified percentage, allowing for an increased Social Security or Government Retirement Plan benefit later.

If no written election is made, the reduction as per Option 1 will apply. Please note that technical terms such as "Insured Employee," "Monthly Benefits," and "Social Security" are integral to this policy section.
<EOS>
This information derives from the Lincoln Policy 4939955.pdf (pages 29, rows 32-40). The Insured Employee may receive reduced Monthly Benefits due to anticipated Social Security or other Government Retirement Plan benefits. The Company will make necessary adjustments to policy benefits and refund any underpayment in a lump sum upon receiving proof of the awarded amount or claim denial, along with completion of any required appeals.
<EOS>
According to Lincoln Policy 4939955, during claim processing, the Insured Employee may receive unreduced monthly benefits. However, they must agree in writing to refund any overpayment that results from receiving Social Security or other Government Retirement Plan benefits in a lump sum. Failure to promptly repay an overpayment will lead to the Company reducing or eliminating future payments and suspending the Minimum Monthly Benefit application until the amount is repaid.
<EOS>
According to Lincoln Policy 4939955.pdf, lump sum payments of other income benefits are proportioned over the specified timeframe. If no duration is provided, the company will apply an estimated monthly deduction until full offset, basing this on their estimate. In cases where no prior monthly offset was in effect, the lump sum is divided over a reasonable period not exceeding 60 months or the Maximum Benefit Period, whichever comes first. This proportioning process ensures that the policyholder receives consistent portions of their benefits throughout the applicable timeframe.
<EOS>
According to Lincoln Policy 4939955, section on Cost-of-Living Freeze (located on pages 29 and 30, rows 62, 63, 1, 4, and 5), the amount for each Other Income Benefit, excluding Earnings, will be frozen upon first deduction. Any cost-of-living increases under these other benefits will not impact the Monthly Benefit further (GL3001-LTD-15 04 29 06/01/12). This policy provision aims to maintain the frozen amount, shielding it from any potential rise in living costs as defined by the other income benefits.
<EOS>
According to Lincoln Policy 4939955.pdf on pages 30, rows 4, 5, and 7, a Recurrent Disability refers to a condition that is the same as or related to a prior Disability for which Monthly Benefits were already paid. In such cases, benefits will be reinstated if the recurrence lasts more than 30 days. If the policyholder returns to work and then experiences a recurrence within 90 days, they may still receive partial benefits based on their earnings during this period. The benefit amount for a Recurrent Disability is calculated using the same method as the initial Disability. Additionally, the elimination period for a Recurrent Disability will be waived if it was served during the prior Disability, provided the new disability starts within 90 days of the termination of the prior benefit period. The policy also specifies that if a policyholder receives benefits for both a current and a Recurrent Disability simultaneously, their total monthly payment will not exceed the maximum stated in the policy.
<EOS>
In accordance with Lincoln Policy 4939955.pdf, a Recurrent Disability is treated as a new Disability under specific conditions. To qualify for further Monthly Benefits following the end of prior Disability benefits, the Insured Employee must return to their Own Occupation on a full-time basis, working at least the Minimum Number of Hours Per Week specified in the Schedule of Benefits, and maintain this status for six consecutive months. A new Elimination Period is required before further payments are made. Additionally, a new Maximum Benefit Period applies.
<EOS>
This Lincoln Policy 4939955 detail states that a Recurrent Disability, following an initial disability, can be treated as part of the prior Disability if it occurs within six consecutive months of the prior Disability benefits ending. The Recurrent Disability does not require a new Elimination Period for benefit payments and shares the same Maximum Benefit Period and Exclusions/Limitations as the prior Disability. The Predisability Income used in determining the prior Disability benefit will also apply to the Recurrent Disability.

If the insured employee returns to their own occupation with the employer for less than six months following the end of prior Disability benefits, and certain subsequent events occur within that period (e.g., job unavailability, policy termination, new employment, no benefits under other plans), the Recurrent Disability will be treated as a prior Disability, and benefits will be reinstated without requiring a new Elimination Period. The same Maximum Benefit Period, Exclusions/Limitations, and Predisability Income will apply to the Recurrent Disability as to the prior Disability.

To qualify for Monthly Benefits during a Recurrent Disability, the insured employee or former employee must earn less than the specified percentage of Predisability Income in the Partial Disability Monthly Benefit section, and payments will be subject to all other terms of this Policy that applied to the prior Disability. This provision ceases to apply if the insured employee becomes eligible for coverage under another group long-term disability plan.
<EOS>
This Lincoln Policy 4939955 specifically excludes total or partial disability benefits under the following conditions:

1. As a result of war, whether declared or undeclared, or any act of war.
2. Due to intentionally self-inflicted injuries or active participation in a riot.
3. When the insured employee is engaged in committing or attempting a felony, assault, battery, or during incarceration for a felony.
4. If the insured employee is not under regular medical care by a physician.
5. After residing outside the United States or Canada for more than 12 consecutive benefit months, except for employment with the employer.
<EOS>
According to Lincoln Policy 4939955, any total or partial disability that is either caused or worsened by a pre-existing condition within the first 24 months after the insured employee's effective date will not be covered. A pre-existing condition is defined as one for which treatment was sought within 12 months prior to the effective date, and this includes consultations, care, services provided by a physician, diagnostic measures, or the prescription, refill of prescription, or taking of any prescribed drugs or medicines. The insured employee will only be exempt from this exclusion if they did not receive treatment for that condition during the six months following their effective date. This policy applies to GL3001-LTD-17 98 Specified Limit.
<EOS>
According to Lincoln Policy 4939955, under the section on Disability benefits (rows 4-11, page 32), Monthly Partial or Total Disability Benefits are payable, subject to policy terms. However, these benefits are only available for a maximum of 24 months per disability period unless the insured employee is hospitalized. The defined "Specified Injuries or Sicknesses" include mental illnesses and substance abuse. It's important to note that mental sicknesses and substance abuse are also defined within this policy. These benefits might be limited to 24 months for any one disability period unless the insured employee is hospitalized, effectively extending the duration of these benefits beyond the initial 24-month limit.
<EOS>
According to Lincoln Policy 4939955.pdf, if the Insured Employee is hospitalized at the end of the 24th month following payment for a Specified Injury or Sickness, benefits will continue until their discharge from that facility. However, these monthly benefits will not be payable beyond the Maximum Benefit Period shown in the Schedule of Insurance. It's crucial to note that this period may end before the employee's hospitalization does.
<EOS>
This information from Lincoln Policy 4939955.pdf specifies that a Hospital is defined as a state-licensed, Joint Commission-approved, or certified facility offering inpatient treatment with round-the-clock registered nursing, lab, x-ray facilities, and major surgery capability. It also includes convalescent or nursing care facilities recognized under Medicare, mental hospitals treating mental sicknesses, and substance abuse treatment centers. These Hospital types must adhere to the criteria stated within the policy's relevant page range [32] rows [25-41].
<EOS>
According to Lincoln Policy 4939955.pdf, a mental hospital is defined as a state-licensed, certified, or approved healthcare facility (or its psychiatric unit) that provides inpatient treatment for mental diseases or disorders. At all times, this type of facility must have a resident psychiatrist available, either on duty or on call. This definition can be found on pages [32] rows [44, 45, 46, 47, 48, 49].
<EOS>
This information from Lincoln Policy 4939955.pdf (page numbers [32], rows [52-68]) defines "Mental Sickness" as any emotional or behavioral abnormality, disorder, disturbance, dysfunction, or syndrome, regardless of cause, including but not limited to schizophrenia or schizoaffective disorder, bipolar affective disorder, manic depression, psychosis, obsessive-compulsive, depressive, panic, and anxiety disorders. Such conditions are usually treated by mental health care providers like psychiatrists or clinical psychologists through methods such as psychotherapy or psychotropic drugs. Mental Sickness excludes irreversible dementia resulting from stroke, trauma, viral infection, Alzheimer's disease, or other conditions not typically treated with psychotherapy, psychotropic drugs, or similar methods by mental health care providers.
<EOS>
According to Lincoln Policy 4939955.pdf, a Treatment Center is defined as a state-licensed, certified, or approved health care facility (or its medical/psychiatric unit) that offers inpatient treatment for substance abuse and operates under a Physician-approved and supervised written plan. This definition is found on pages 32 and 33, rows 73 to 78, 3, 4, 6, and 7, from the policy dated 06/01/12 (GL3001-LTD-17.3 98 Voluntary Rehab.).
<EOS>
According to Lincoln Policy 4939955 on pages 33 rows 4-12, a Disabled Insured Employee receiving benefits may be eligible for Vocational Rehabilitation. This benefit includes vocational evaluation, counseling, training, job placement, job modification or special equipment, and other necessary services to aid the employee's return to work. The Company decides eligibility and the payable amount of this benefit.
<EOS>
According to Lincoln Policy 4939955.pdf, an eligible employee for this benefit must have a disability that prevents regular occupation performance and lack skills for any other gainful occupation post the Own Occupation Period. The individual should possess the necessary physical and mental abilities to complete a Program. Upon completion of the Program, they are reasonably anticipated to return to work considering their motivation level and demand for workers in the proposed occupation. The labor force's expected claim liability must be less than the cost of the proposed services. This eligibility is subject to the employee meeting all these criteria.
<EOS>
According to Lincoln Policy 4939955.pdf (pages 33, rows 27-29), the Vocational Rehabilitation Benefit's payment does not exceed the company's expected amount. This benefit is not payable for services already covered under the Insured Employee's health care plan or any other vocational rehabilitation program. The company has the option to make payments directly to the service provider if needed. Note that this benefit will not cover services already paid or payable by another source.
<EOS>
In accordance with Lincoln Policy 4939955, during a vocational rehabilitation program approved by the company, the policy's definition of Disability is temporarily waived. This waiver pertains only to the rehabilitation period. Upon the termination of the program, the company will reassess the Insured Employee's Disability status and determine any Long Term Disability benefits payable, including their amount and duration.
<EOS>
According to Lincoln Policy 4939955, the Vocational Rehabilitation Benefit will not be covered for an Insured Employee if they fail to complete the Program without Good Cause. This means that if an employee does not fulfill the requirements of the program or has a legitimate reason for failing, coverage may still apply. The details regarding what constitutes 'Good Cause' are not explicitly provided in this policy excerpt. It is essential to understand that failure to complete the Vocational Rehabilitation Program without Good Cause may affect the employee's benefits as outlined in the policy.
<EOS>
This Lincoln Policy 4939955 defines "Good Cause" for an insured employee as documented physical or mental impairments preventing program participation, involvement in a medical program interfering with a program, or participation in another vocational rehabilitation program that conflicts with the company's program but is expected to facilitate return to work. Such circumstances must be proven through documentation and should not hinder the employee from completing the initially developed program by the Company.
<EOS>
